epoch,acc_x,acc_y,acc_z,rot_x,rot_y,rot_z,mag_x,mag_y,mag_z,temp
1644183000.063182,-0.011475,0.00531,-0.990173,0.129252,0.325496,-0.039389,52,280,586,6176
1644183000.101482,-0.011047,0.009583,-0.992981,0.220855,0.371298,-0.130992,49,270,593,6192
1644183000.14909,-0.007996,0.010193,-0.992554,-0.008153,0.462901,-0.115725,51,286,580,6160
1644183000.197491,-0.008484,0.007446,-0.990967,0.144519,0.401832,-0.207328,43,276,585,6160
1644183000.245851,-0.008484,0.00708,-0.992493,0.236122,0.310229,-0.054656,55,279,580,6224
1644183000.294267,-0.010742,0.008606,-0.992371,0.159786,0.493435,-0.115725,52,277,579,6192
1644183000.342686,-0.005371,0.009338,-0.993164,0.236122,0.401832,-0.115725,53,276,580,6128
1644183000.391052,-0.01062,0.009155,-0.992981,0.220855,0.325496,-0.176794,46,279,590,6240
1644183000.439444,-0.009521,0.010498,-0.989868,0.144519,0.279695,-0.192061,58,271,590,6128
1644183000.487838,-0.008789,0.012329,-0.993652,0.144519,0.294962,-0.024122,49,270,591,6240
1644183000.536204,-0.007263,0.01123,-0.991394,0.266656,0.218626,-0.054656,46,274,583,6240
1644183000.584637,-0.009338,0.01001,-0.992676,0.052916,0.432366,-0.161527,58,276,592,6192
1644183000.633353,-0.008911,0.011963,-0.990723,0.205588,0.371298,-0.161527,52,270,589,6192
1644183000.681751,-0.00946,0.01123,-0.990723,0.175053,0.356031,-0.176794,47,282,579,6256
1644183000.730748,-0.005615,0.008057,-0.99115,0.159786,0.478168,-0.069924,52,265,579,6192
1644183000.781751,-0.008972,0.007996,-0.992004,0.236122,0.203359,-0.100458,51,269,587,6112
1644183000.832695,-0.006836,0.00824,-0.991943,0.220855,0.310229,-0.069924,54,280,584,6224
1644183000.923451,-0.007507,0.009338,-0.993347,0.159786,0.371298,-0.100458,41,283,583,6256
1644183000.971824,-0.010498,0.010986,-0.992065,0.190321,0.462901,-0.222595,64,275,584,6240
1644183001.020207,-0.008301,0.008423,-0.993958,0.220855,0.401832,-0.115725,53,266,590,6240
1644183001.070821,-0.006531,0.008728,-0.992065,0.068183,0.371298,-0.008855,57,270,600,6192
1644183001.116982,-0.008423,0.009949,-0.98877,0.266656,0.310229,-0.14626,47,285,586,6128
1644183001.165315,-0.009216,0.010071,-0.991516,0.220855,0.294962,-0.161527,49,275,582,6176
1644183001.213795,-0.009094,0.008545,-0.989685,0.281924,0.325496,-0.069924,47,287,593,6192
1644183001.262177,-0.009155,0.009399,-0.992615,0.342992,0.432366,-0.069924,46,274,590,6176
1644183001.310504,-0.008545,0.008179,-0.992798,0.08345,0.493435,-0.161527,57,275,577,6176
1644183001.358914,-0.005066,0.013428,-0.994324,0.129252,0.310229,-0.130992,49,280,584,6224
1644183001.407307,-0.00647,0.009705,-0.990173,0.281924,0.417099,-0.130992,46,274,594,6112
1644183001.455704,-0.010864,0.009888,-0.99054,0.327725,0.569771,-0.14626,51,279,585,6176
1644183001.504122,-0.008728,0.011169,-0.99231,0.220855,0.569771,-0.161527,46,279,590,6192
1644183001.552504,-0.00708,0.010498,-0.992554,0.190321,0.432366,-0.054656,57,275,586,6224
1644183001.600873,-0.009338,0.009827,-0.994019,0.205588,0.386565,-0.14626,47,275,584,6128
1644183001.649279,-0.007629,0.00946,-0.992249,0.190321,0.279695,-0.222595,55,281,585,6160
1644183001.69767,-0.008789,0.008728,-0.99469,0.312458,0.356031,0.006412,53,283,585,6224
1644183001.746057,-0.005005,0.008606,-0.990417,0.037649,0.325496,-0.039389,48,274,576,6224
1644183001.79443,-0.008423,0.00769,-0.991943,0.159786,0.447634,-0.130992,55,269,585,6224
1644183001.844447,-0.007751,0.008606,-0.990417,0.159786,0.478168,-0.222595,48,266,583,6224
1644183001.894304,-0.008972,0.009827,-0.990845,0.312458,0.386565,-0.222595,51,276,585,6160
1644183001.944658,-0.009277,0.009216,-0.991699,0.297191,0.340763,-0.085191,58,274,583,6176
1644183001.989192,-0.006165,0.010559,-0.992432,0.129252,0.401832,-0.054656,45,273,586,6192
1644183002.084894,-0.008911,0.010742,-0.993103,0.251389,0.325496,-0.161527,53,283,587,6160
1644183002.133222,-0.00885,0.009705,-0.994507,0.281924,0.432366,-0.161527,46,279,578,6160
1644183002.181596,-0.009583,0.008057,-0.992737,0.266656,0.340763,-0.085191,47,275,593,6128
1644183002.229974,-0.009399,0.010925,-0.989868,0.113985,0.386565,-0.176794,48,276,590,6160
1644183002.278389,-0.00885,0.011719,-0.991577,0.281924,0.462901,-0.14626,48,271,580,6224
1644183002.326757,-0.010193,0.009949,-0.992615,0.022382,0.371298,-0.069924,48,276,587,6192
1644183002.375189,-0.005859,0.00824,-0.990295,0.190321,0.478168,-0.100458,45,280,593,6192
1644183002.423542,-0.008423,0.007874,-0.993896,0.08345,0.432366,-0.14626,53,276,587,6128
1644183002.471956,-0.008423,0.00946,-0.990845,0.08345,0.340763,-0.14626,43,279,590,6240
1644183002.520349,-0.007507,0.01123,-0.993958,0.175053,0.508702,-0.054656,49,270,586,6176
1644183002.568744,-0.006836,0.010803,-0.991394,0.281924,0.432366,0.021679,65,271,592,6176
1644183002.617139,-0.011597,0.009216,-0.993286,0.190321,0.493435,-0.069924,47,282,586,6240
1644183002.665528,-0.007629,0.010132,-0.993164,0.327725,0.493435,-0.069924,59,277,584,6128
1644183002.713929,-0.00824,0.01178,-0.990906,0.113985,0.432366,-0.054656,54,273,577,6160
1644183002.762307,-0.005737,0.009033,-0.991211,0.159786,0.371298,-0.130992,46,276,587,6224
1644183002.810692,-0.009277,0.010071,-0.994507,0.266656,0.401832,0.006412,46,262,587,6192
1644183002.859126,-0.008728,0.008484,-0.990601,0.190321,0.508702,-0.085191,40,273,582,6128
1644183002.907847,-0.007263,0.009399,-0.990967,0.098718,0.401832,0.113282,46,271,590,6240
1644183002.957106,-0.010681,0.009399,-0.993042,0.266656,0.523969,-0.192061,47,270,586,6224
1644183003.008073,-0.008179,0.012146,-0.990906,0.251389,0.401832,-0.085191,46,274,590,6160
1644183003.081833,-0.007812,0.010071,-0.992737,0.190321,0.432366,-0.115725,47,280,582,6128
1644183003.108696,-0.009644,0.00824,-0.991028,0.220855,0.371298,-0.085191,41,269,585,6256
1644183003.197832,-0.007141,0.009338,-0.991394,0.159786,0.478168,-0.237863,54,273,584,6192
1644183003.246219,-0.008789,0.007385,-0.991516,0.205588,0.356031,-0.176794,48,281,587,6256
1644183003.29485,-0.006409,0.008911,-0.989563,0.175053,0.432366,-0.069924,53,266,592,6240
1644183003.343022,-0.008728,0.012695,-0.992493,0.144519,0.325496,-0.024122,49,280,589,6224
1644183003.39141,-0.011169,0.008911,-0.992859,0.327725,0.478168,-0.14626,51,286,583,6224
1644183003.4398,-0.00592,0.00824,-0.991699,0.113985,0.24916,-0.085191,47,275,582,6240
1644183003.4882,-0.009216,0.009521,-0.991394,0.220855,0.447634,-0.085191,46,274,590,6160
1644183003.53659,-0.009338,0.008118,-0.992249,0.205588,0.371298,-0.115725,46,276,585,6192
1644183003.586207,-0.008606,0.01123,-0.994629,0.205588,0.310229,0.021679,43,279,578,6176
1644183003.633388,-0.009888,0.007507,-0.988098,0.08345,0.417099,-0.069924,61,280,577,6224
1644183003.681754,-0.007812,0.010864,-0.989319,0.037649,0.294962,-0.176794,53,274,580,6288
1644183003.730164,-0.007812,0.010864,-0.990662,0.236122,0.310229,-0.115725,46,276,585,6160
1644183003.778543,-0.009705,0.010925,-0.99231,0.113985,0.340763,-0.054656,47,275,584,6160
1644183003.826938,-0.008301,0.008179,-0.992371,0.220855,0.432366,-0.054656,57,268,584,6224
1644183003.875386,-0.005981,0.009094,-0.99115,0.251389,0.310229,-0.085191,51,283,587,6240
1644183003.923779,-0.00769,0.007751,-0.992126,0.297191,0.401832,-0.069924,47,277,572,6224
1644183003.972181,-0.008118,0.010315,-0.992676,0.312458,0.340763,-0.054656,59,273,577,6224
1644183004.020563,-0.00769,0.01062,-0.991333,0.129252,0.417099,0.006412,53,276,578,6128
1644183004.081522,-0.007874,0.011047,-0.993469,0.236122,0.24916,-0.130992,45,275,589,6240
1644183004.122299,-0.007446,0.011719,-0.991516,0.190321,0.523969,0.052214,52,270,579,6224
1644183004.167257,-0.011719,0.01001,-0.99292,0.175053,0.325496,-0.237863,46,274,590,6224
1644183004.262482,-0.009216,0.010559,-0.992493,0.388794,0.508702,-0.100458,51,279,564,6176
1644183004.310876,-0.006958,0.008667,-0.989929,0.266656,0.356031,-0.008855,46,279,583,6128
1644183004.359263,-0.008484,0.01001,-0.991211,0.190321,0.386565,-0.085191,61,277,589,6176
1644183004.407656,-0.008545,0.011841,-0.992554,0.129252,0.417099,-0.115725,59,275,586,6160
1644183004.456055,-0.008606,0.011047,-0.989624,0.220855,0.310229,-0.069924,41,283,578,6192
1644183004.504444,-0.007263,0.010071,-0.989075,0.404061,0.478168,-0.024122,45,275,577,6160
1644183004.552862,-0.010437,0.007263,-0.990295,0.297191,0.432366,-0.100458,48,276,580,6160
1644183004.601249,-0.009766,0.011475,-0.991699,0.144519,0.417099,0.021679,51,279,583,6256
1644183004.649642,-0.00885,0.012207,-0.991028,0.144519,0.432366,-0.314198,45,270,582,6224
1644183004.698033,-0.011108,0.007324,-0.993286,0.220855,0.279695,-0.024122,55,276,580,6224
1644183004.746383,-0.010315,0.008118,-0.993958,0.266656,0.371298,-0.14626,52,268,579,6224
1644183004.79483,-0.009338,0.008972,-0.989685,0.159786,0.279695,0.006412,41,274,578,6176
1644183004.843193,-0.005005,0.011902,-0.99231,0.266656,0.478168,0.082748,46,276,580,6176
1644183004.891637,-0.007019,0.008362,-0.991394,0.266656,0.478168,-0.161527,55,269,580,6224
1644183004.940032,-0.009338,0.00885,-0.992676,0.236122,0.478168,-0.100458,45,273,577,6240
1644183004.988426,-0.011475,0.007996,-0.99176,0.205588,0.340763,-0.085191,46,279,576,6160
1644183005.036813,-0.010315,0.008667,-0.990051,0.190321,0.325496,-0.054656,41,279,580,6160
1644183005.085289,-0.007629,0.011658,-0.992065,0.236122,0.417099,-0.054656,53,271,590,6176
1644183005.133567,-0.010254,0.01001,-0.989136,0.159786,0.386565,-0.039389,51,279,580,6160
1644183005.181974,-0.007874,0.009033,-0.991211,0.220855,0.401832,-0.085191,51,269,580,6224
1644183005.231903,-0.009094,0.009705,-0.989868,0.220855,0.279695,-0.130992,47,270,586,6160
1644183005.282275,-0.009888,0.007996,-0.993713,0.297191,0.279695,-0.14626,43,274,583,6128
1644183005.327393,-0.009399,0.008728,-0.993286,0.251389,0.478168,-0.039389,49,280,575,6160
1644183005.423923,-0.010376,0.007507,-0.993774,0.220855,0.432366,-0.054656,55,274,576,6160
1644183005.472393,-0.004639,0.01001,-0.991333,0.129252,0.523969,-0.222595,49,280,584,6224
1644183005.520711,-0.008545,0.009094,-0.991455,0.220855,0.401832,-0.237863,40,280,586,6160
1644183005.569085,-0.010498,0.009949,-0.989929,0.297191,0.447634,-0.14626,46,266,583,6160
1644183005.617481,-0.005005,0.010559,-0.994812,0.220855,0.447634,-0.207328,54,273,591,6176
1644183005.665867,-0.008789,0.011597,-0.993103,0.159786,0.401832,-0.115725,60,266,576,6192
1644183005.714258,-0.010071,0.009827,-0.992371,0.175053,0.340763,-0.176794,47,285,579,6256
1644183005.762675,-0.010803,0.011047,-0.993408,0.236122,0.371298,0.036947,51,274,585,6240
1644183005.811098,-0.009399,0.007385,-0.99054,0.175053,0.447634,-0.161527,45,270,579,6224
1644183005.85949,-0.006287,0.010681,-0.990356,0.129252,0.340763,-0.222595,54,280,584,6176
1644183005.907895,-0.011047,0.008728,-0.991638,0.266656,0.279695,-0.069924,51,279,585,6160
1644183005.956285,-0.008362,0.012085,-0.992554,0.205588,0.401832,-0.25313,54,275,584,6224
1644183006.00477,-0.006042,0.008728,-0.991943,0.144519,0.264427,-0.100458,59,270,579,6176
1644183006.067009,-0.005859,0.008972,-0.991089,0.297191,0.264427,-0.024122,57,273,591,6224
1644183006.102919,-0.009155,0.01001,-0.992737,0.281924,0.264427,-0.207328,51,281,592,6224
1644183006.149819,-0.010193,0.011597,-0.990295,0.129252,0.218626,-0.161527,59,277,579,6176
1644183006.198202,-0.011414,0.011841,-0.990051,0.190321,0.371298,0.098015,52,277,598,6176
1644183006.246588,-0.007263,0.008606,-0.988892,0.129252,0.462901,-0.192061,52,277,591,6224
1644183006.295022,-0.010681,0.011414,-0.991821,0.251389,0.432366,-0.054656,33,282,589,6080
1644183006.343759,-0.008057,0.010742,-0.990967,0.159786,0.279695,-0.130992,41,279,580,6128
1644183006.393831,-0.009705,0.010315,-0.989563,0.08345,0.325496,-0.192061,48,271,592,6128
1644183006.443941,-0.006897,0.011292,-0.99353,0.220855,0.523969,-0.069924,47,270,589,6160
1644183006.489335,-0.007812,0.00708,-0.993347,0.236122,0.340763,-0.085191,61,268,577,6160
1644183006.585401,-0.009216,0.009644,-0.990601,0.205588,0.417099,-0.085191,49,265,591,6224
1644183006.633728,-0.005981,0.008362,-0.992004,0.113985,0.218626,-0.115725,47,268,575,6160
1644183006.682383,-0.007996,0.007935,-0.99054,0.281924,0.493435,-0.085191,51,279,569,6224
1644183006.730514,-0.009094,0.009705,-0.990295,0.281924,0.233893,-0.222595,53,281,578,6176
1644183006.7789,-0.008728,0.012085,-0.98938,0.098718,0.401832,-0.069924,53,279,583,6160
1644183006.827344,-0.007874,0.007141,-0.993774,0.327725,0.478168,-0.161527,49,273,586,6128
1644183006.875721,-0.006653,0.009399,-0.991394,0.113985,0.432366,-0.039389,42,285,582,6240
1644183006.924149,-0.008179,0.010315,-0.989746,0.205588,0.279695,-0.054656,51,279,585,6176
1644183006.972537,-0.008423,0.011841,-0.990601,0.312458,0.401832,-0.115725,46,269,583,6224
1644183007.020929,-0.011047,0.010803,-0.990906,0.266656,0.340763,-0.222595,46,266,576,6192
1644183007.076452,-0.007568,0.010376,-0.990601,-0.008153,0.356031,-0.039389,59,268,589,6176
1644183007.117707,-0.006287,0.008118,-0.992493,0.327725,0.432366,-0.100458,47,268,586,6176
1644183007.166059,-0.008362,0.010132,-0.991943,0.144519,0.447634,0.036947,43,271,590,6192
1644183007.214454,-0.01062,0.009766,-0.993164,0.327725,0.294962,-0.161527,57,273,584,6224
1644183007.262853,-0.00647,0.010925,-0.988281,0.35826,0.386565,-0.039389,48,269,590,6160
1644183007.311247,-0.009766,0.009888,-0.991577,0.190321,0.294962,-0.024122,38,275,584,6224
1644183007.359631,-0.008728,0.007324,-0.988953,0.175053,0.539237,-0.176794,47,270,575,6224
1644183007.408031,-0.008789,0.010742,-0.991943,0.236122,0.523969,0.006412,39,274,592,6176
1644183007.456417,-0.007874,0.009216,-0.991577,0.266656,0.264427,0.006412,46,264,580,6176
1644183007.506702,-0.008728,0.007751,-0.990234,0.312458,0.478168,-0.100458,51,264,583,6224
1644183007.557042,-0.00946,0.011108,-0.991882,0.159786,0.432366,-0.176794,51,281,594,6176
1644183007.602089,-0.009094,0.012939,-0.989258,0.434595,0.386565,-0.14626,46,271,576,6192
1644183007.698348,-0.009521,0.010498,-0.990112,0.205588,0.386565,-0.115725,46,279,578,6128
1644183007.746747,-0.007751,0.011963,-0.993103,0.022382,0.356031,-0.008855,49,275,584,6192
1644183007.795341,-0.010864,0.008484,-0.991394,0.281924,0.386565,-0.100458,65,269,576,6176
1644183007.8436,-0.010071,0.010559,-0.989929,0.113985,0.356031,-0.14626,48,276,576,6176
1644183007.891961,-0.007812,0.011353,-0.992371,0.312458,0.371298,-0.024122,30,273,579,6224
1644183007.940387,-0.010742,0.009277,-0.991272,0.175053,0.401832,-0.100458,42,275,579,6240
1644183007.988753,-0.006897,0.013672,-0.991821,0.190321,0.340763,-0.100458,51,283,580,6176
1644183008.037179,-0.00769,0.010071,-0.993164,0.220855,0.523969,-0.085191,53,283,585,6192
1644183008.088618,-0.008118,0.010315,-0.992065,0.342992,0.356031,-0.14626,54,280,577,6160
1644183008.133921,-0.008728,0.008545,-0.991882,0.129252,0.371298,-0.192061,41,281,587,6080
1644183008.18232,-0.012024,0.010315,-0.991577,0.312458,0.310229,-0.069924,41,279,578,6176
1644183008.230698,-0.010376,0.01001,-0.993164,0.266656,0.401832,-0.008855,53,274,576,6240
1644183008.279107,-0.00708,0.008606,-0.991089,0.312458,0.371298,-0.069924,48,281,585,6160
1644183008.327488,-0.007446,0.01001,-0.989685,-0.02342,0.264427,-0.054656,42,270,591,6160
1644183008.375884,-0.009155,0.010803,-0.989746,0.35826,0.417099,-0.130992,51,279,583,6128
1644183008.424356,-0.009521,0.009583,-0.992554,0.419328,0.447634,-0.008855,54,268,582,6192
1644183008.474483,-0.007935,0.01062,-0.993713,0.08345,0.371298,-0.039389,49,265,584,6160
1644183008.524917,-0.007751,0.007812,-0.991394,0.205588,0.462901,-0.115725,48,276,585,6192
1644183008.569493,-0.011108,0.012024,-0.991089,0.205588,0.462901,-0.14626,47,270,584,6176
1644183008.666214,-0.008728,0.009155,-0.993103,0.190321,0.417099,-0.130992,51,281,587,6224
1644183008.714841,-0.010437,0.009705,-0.99054,0.113985,0.462901,-0.115725,52,285,582,6192
1644183008.763017,-0.009583,0.010742,-0.990906,0.113985,0.356031,-0.039389,52,277,579,6240
1644183008.811403,-0.009277,0.011292,-0.991821,0.220855,0.432366,-0.115725,49,275,582,6192
1644183008.85984,-0.008423,0.010681,-0.988953,0.266656,0.386565,-0.25313,59,280,589,6160
1644183008.90824,-0.005859,0.010742,-0.991272,0.297191,0.356031,-0.161527,55,274,580,6192
1644183008.956623,-0.008484,0.009521,-0.992371,0.159786,0.417099,-0.085191,46,274,585,6224
1644183009.005073,-0.007629,0.010376,-0.99054,0.129252,0.539237,-0.039389,53,279,576,6176
1644183009.067935,-0.007385,0.009766,-0.989624,0.129252,0.508702,-0.130992,47,277,584,6160
1644183009.104834,-0.008057,0.010681,-0.991089,0.144519,0.569771,-0.039389,47,280,582,6224
1644183009.150204,-0.006958,0.009644,-0.992737,0.236122,0.462901,-0.085191,58,276,590,6192
1644183009.198555,-0.007385,0.011658,-0.991516,0.098718,0.386565,-0.100458,54,270,579,6192
1644183009.246929,-0.008728,0.011658,-0.991821,0.251389,0.340763,-0.054656,42,282,584,6192
1644183009.295341,-0.008301,0.006836,-0.991821,0.175053,0.447634,-0.085191,49,265,579,6176
1644183009.343734,-0.009338,0.011169,-0.989624,0.144519,0.294962,-0.14626,49,270,570,6224
1644183009.392179,-0.009521,0.008545,-0.993652,0.266656,0.325496,-0.024122,51,276,585,6176
1644183009.440522,-0.008911,0.009766,-0.990845,0.144519,0.310229,-0.115725,51,274,583,6224
1644183009.489279,-0.007324,0.011353,-0.989746,0.098718,0.340763,-0.069924,46,286,576,6224
1644183009.53731,-0.009705,0.009277,-0.994141,0.251389,0.493435,-0.176794,42,285,577,6192
1644183009.58603,-0.00824,0.010498,-0.994385,0.190321,0.508702,-0.008855,52,277,582,6192
1644183009.636703,-0.009033,0.011169,-0.991333,0.098718,0.371298,0.052214,55,269,578,6224
1644183009.68674,-0.008423,0.010132,-0.986877,0.220855,0.356031,-0.024122,57,270,586,6176
1644183009.731841,-0.007141,0.008545,-0.989014,0.297191,0.417099,-0.176794,46,279,585,6128
1644183009.827647,-0.006714,0.010925,-0.99292,0.144519,0.401832,-0.192061,52,275,589,6224
1644183009.876075,-0.010864,0.009888,-0.991821,0.236122,0.340763,-0.024122,52,282,586,6176
1644183009.924491,-0.008057,0.010254,-0.991455,0.297191,0.432366,-0.115725,47,268,591,6112
1644183009.972899,-0.008118,0.005798,-0.992615,0.144519,0.478168,-0.039389,59,280,584,6160
1644183010.021281,-0.007935,0.012573,-0.99292,0.281924,0.478168,-0.130992,51,279,583,6176
1644183010.070085,-0.009583,0.009705,-0.991882,0.220855,0.447634,-0.085191,39,279,580,6224
1644183010.118062,-0.007019,0.01001,-0.990906,-0.02342,0.340763,-0.069924,48,281,580,6176
1644183010.166413,-0.009094,0.009949,-0.992981,0.236122,0.356031,-0.100458,54,280,591,6128
1644183010.214819,-0.008545,0.010742,-0.992126,0.251389,0.325496,-0.100458,51,281,573,6128
1644183010.263193,-0.008972,0.008728,-0.993469,0.251389,0.264427,0.006412,51,279,587,6224
1644183010.311567,-0.010315,0.007629,-0.989563,0.068183,0.310229,-0.115725,46,279,585,6128
1644183010.359988,-0.009033,0.009033,-0.99176,0.251389,0.462901,-0.14626,42,277,577,6160
1644183010.408344,-0.01123,0.010986,-0.988586,0.144519,0.310229,-0.039389,40,282,593,6080
1644183010.456777,-0.009399,0.00885,-0.990906,0.175053,0.356031,-0.008855,49,282,591,6192
1644183010.505216,-0.008423,0.009949,-0.993225,0.159786,0.417099,-0.130992,49,280,586,6176
1644183010.553563,-0.006897,0.009949,-0.990906,0.388794,0.478168,-0.054656,43,271,594,6224
1644183010.601939,-0.007751,0.01123,-0.991699,-0.008153,0.325496,0.006412,51,281,583,6160
1644183010.650586,-0.010681,0.012451,-0.991943,0.220855,0.447634,-0.115725,46,274,576,6192
1644183010.699427,-0.008789,0.008667,-0.994507,0.144519,0.401832,-0.054656,52,275,579,6128
1644183010.74836,-0.008972,0.010681,-0.994324,0.129252,0.478168,-0.085191,53,276,585,6192
1644183010.798674,-0.009521,0.012207,-0.992798,0.037649,0.417099,-0.069924,42,273,579,6192
1644183010.849347,-0.00061,0.010986,-0.990479,0.281924,0.310229,0.036947,55,269,573,6224
1644183010.940752,-0.008728,0.009216,-0.992065,0.236122,0.432366,-0.039389,41,283,590,6192
1644183010.989125,-0.004822,0.011841,-0.995056,0.205588,0.188092,-0.054656,51,274,578,6224
1644183011.037497,-0.007141,0.008911,-0.991516,0.175053,0.310229,0.067481,40,273,589,6160
1644183011.085994,-0.008484,0.01062,-0.991455,0.190321,0.386565,-0.024122,53,281,580,6256
1644183011.134312,-0.010193,0.008667,-0.992126,0.220855,0.386565,-0.008855,52,280,577,6160
1644183011.182681,-0.009705,0.011047,-0.990906,0.144519,0.447634,-0.237863,51,279,585,6176
1644183011.231056,-0.010132,0.009888,-0.993347,0.281924,0.432366,-0.008855,53,274,578,6224
1644183011.279454,-0.008301,0.010864,-0.992065,0.373527,0.569771,-0.176794,47,282,589,6160
1644183011.327854,-0.007751,0.009033,-0.990845,0.236122,0.356031,-0.115725,46,274,576,6176
1644183011.376234,-0.00769,0.011658,-0.990662,0.159786,0.371298,-0.085191,47,285,589,6176
1644183011.424715,-0.009644,0.011108,-0.989563,0.220855,0.462901,-0.207328,64,277,570,6224
1644183011.473019,-0.009094,0.009338,-0.99176,0.129252,0.493435,-0.085191,45,277,575,6224
1644183011.521413,-0.007507,0.007874,-0.990723,0.251389,0.325496,-0.115725,47,275,584,6160
1644183011.5698,-0.00824,0.010071,-0.988953,0.35826,0.203359,-0.100458,38,285,589,6160
1644183011.618191,-0.007568,0.011902,-0.990112,0.266656,0.432366,-0.085191,54,280,591,6176
1644183011.666546,-0.009155,0.009705,-0.99231,0.113985,0.493435,-0.100458,48,276,590,6128
1644183011.715024,-0.008362,0.008484,-0.992065,0.113985,0.508702,-0.222595,57,277,586,6224
1644183011.76338,-0.006653,0.010315,-0.98999,0.098718,0.417099,-0.039389,49,277,584,6192
1644183011.812195,-0.004761,0.006897,-0.991699,0.175053,0.279695,-0.054656,48,281,587,6160
1644183011.863684,-0.010254,0.007812,-0.993774,0.220855,0.462901,-0.100458,51,266,583,6128
1644183011.913702,-0.009766,0.008789,-0.992432,0.342992,0.386565,-0.192061,51,271,601,6224
1644183011.958381,-0.006592,0.010925,-0.99054,0.297191,0.417099,-0.069924,51,283,580,6224
1644183012.065549,-0.010376,0.007019,-0.992249,0.297191,0.478168,-0.115725,43,264,597,6224
1644183012.10393,-0.010803,0.01062,-0.991211,0.159786,0.340763,-0.192061,53,286,585,6176
1644183012.150532,-0.010742,0.00769,-0.99292,0.312458,0.523969,-0.161527,47,275,589,6176
1644183012.198917,-0.008728,0.008789,-0.991394,0.190321,0.493435,-0.176794,49,275,584,6160
1644183012.247295,-0.009705,0.007202,-0.990906,0.281924,0.371298,-0.100458,54,268,591,6224
1644183012.295694,-0.009338,0.010254,-0.989746,0.175053,0.417099,-0.069924,48,288,580,6160
1644183012.344104,-0.00592,0.011108,-0.993103,0.190321,0.340763,-0.039389,47,277,589,6176
1644183012.392497,-0.006897,0.011353,-0.991638,0.190321,0.386565,0.021679,48,276,583,6176
1644183012.440879,-0.010132,0.011597,-0.993408,0.190321,0.447634,-0.024122,49,277,589,6176
1644183012.48933,-0.009277,0.007019,-0.988159,0.297191,0.523969,-0.069924,41,279,590,6224
1644183012.537667,-0.009766,0.010986,-0.992371,0.236122,0.401832,0.021679,48,271,590,6176
1644183012.586056,-0.007141,0.007935,-0.993103,0.190321,0.478168,-0.085191,60,271,585,6128
1644183012.634445,-0.007141,0.010742,-0.993164,0.266656,0.340763,-0.176794,53,276,592,6224
1644183012.68289,-0.008606,0.009094,-0.992371,0.266656,0.294962,-0.085191,51,279,597,6176
1644183012.733106,-0.009583,0.01001,-0.992859,0.35826,0.356031,0.021679,45,285,586,6176
1644183012.783439,-0.010803,0.008606,-0.992432,0.159786,0.493435,-0.054656,47,275,593,6176
1644183012.828768,-0.007507,0.008545,-0.992188,0.175053,0.417099,-0.039389,54,268,584,6224
1644183012.92499,-0.007996,0.010925,-0.991821,0.175053,0.294962,0.006412,49,270,586,6128
1644183012.973232,-0.008179,0.008911,-0.990479,0.236122,0.417099,-0.115725,48,266,590,6192
1644183013.021645,-0.007385,0.009399,-0.99353,0.342992,0.340763,-0.14626,41,274,587,6192
1644183013.070802,-0.008057,0.009705,-0.992676,0.205588,0.294962,-0.069924,45,273,582,6224
1644183013.118361,-0.007141,0.008789,-0.994385,0.236122,0.356031,-0.100458,60,271,585,6192
1644183013.166764,-0.006836,0.006042,-0.992065,0.144519,0.325496,-0.024122,54,282,584,6176
1644183013.215188,-0.007996,0.011536,-0.993469,0.388794,0.401832,0.021679,40,280,591,6176
1644183013.263562,-0.008789,0.010376,-0.990662,0.281924,0.478168,-0.039389,38,290,579,6224
1644183013.311926,-0.008667,0.011047,-0.991943,0.297191,0.417099,-0.237863,55,279,583,6128
1644183013.360316,-0.007812,0.007812,-0.991943,0.281924,0.371298,-0.130992,47,285,586,6176
1644183013.408743,-0.00708,0.01178,-0.991882,0.327725,0.340763,-0.130992,53,274,571,6128
1644183013.457135,-0.006409,0.008545,-0.988892,0.190321,0.569771,-0.161527,51,271,580,6224
1644183013.50552,-0.008423,0.007629,-0.992065,0.297191,0.447634,-0.024122,48,281,583,6176
1644183013.553933,-0.008545,0.011597,-0.991211,0.205588,0.417099,-0.14626,57,277,579,6192
1644183013.60231,-0.006836,0.008667,-0.993591,0.159786,0.417099,-0.222595,49,268,586,6192
1644183013.650673,-0.007568,0.010742,-0.992188,0.190321,0.386565,-0.207328,46,281,583,6224
1644183013.69909,-0.01001,0.008606,-0.99292,0.266656,0.569771,-0.161527,52,287,589,6240
1644183013.747486,-0.007019,0.008667,-0.992188,0.236122,0.340763,-0.115725,36,274,583,6192
1644183013.796074,-0.006714,0.008484,-0.992676,0.266656,0.386565,-0.039389,49,275,589,6160
1644183013.845245,-0.010498,0.012695,-0.989563,0.175053,0.493435,-0.14626,53,274,590,6256
1644183013.895725,-0.00647,0.010498,-0.99176,0.266656,0.386565,-0.115725,49,275,575,6224
1644183013.945718,-0.010803,0.011658,-0.991577,0.251389,0.356031,-0.130992,51,286,583,6160
1644183013.99036,-0.00647,0.010681,-0.990601,0.190321,0.447634,-0.085191,47,275,582,6176
1644183014.086361,-0.011414,0.008118,-0.992065,0.144519,0.447634,-0.008855,51,283,585,6192
1644183014.134845,-0.009705,0.011108,-0.992737,0.113985,0.340763,-0.161527,43,276,576,6128
1644183014.183038,-0.009888,0.010132,-0.992676,0.144519,0.417099,-0.085191,45,277,586,6192
1644183014.231405,-0.008545,0.008484,-0.993469,0.144519,0.417099,-0.130992,55,262,583,6128
1644183014.279815,-0.010681,0.00946,-0.991882,0.404061,0.371298,-0.14626,49,275,593,6192
1644183014.328198,-0.008789,0.006409,-0.989746,0.251389,0.340763,-0.100458,46,271,592,6192
1644183014.376592,-0.007141,0.010864,-0.991272,0.297191,0.417099,-0.115725,48,269,580,6160
1644183014.425024,-0.011108,0.011108,-0.993164,0.220855,0.447634,-0.14626,53,281,576,6224
1644183014.47339,-0.010681,0.008423,-0.991089,0.144519,0.585038,-0.161527,54,280,582,6224
1644183014.521743,-0.009338,0.010681,-0.992126,0.312458,0.523969,-0.14626,48,274,587,6192
1644183014.570168,-0.006592,0.008362,-0.990479,0.266656,0.356031,-0.298931,40,270,579,6224
1644183014.618554,-0.008301,0.010986,-0.990417,0.35826,0.294962,-0.039389,41,274,585,6224
1644183014.666962,-0.007202,0.011353,-0.99115,0.052916,0.310229,-0.222595,46,283,583,6128
1644183014.715337,-0.006775,0.008728,-0.988525,0.388794,0.493435,-0.085191,40,275,582,6192
1644183014.763752,-0.009949,0.009949,-0.989624,0.190321,0.371298,-0.054656,52,260,582,6240
1644183014.812292,-0.006897,0.009766,-0.991821,0.190321,0.539237,-0.115725,53,271,580,6224
1644183014.860555,-0.008057,0.010315,-0.992065,0.297191,0.432366,-0.176794,45,270,577,6224
1644183014.908952,-0.007812,0.006287,-0.991211,0.327725,0.432366,-0.14626,42,280,572,6192
1644183014.95757,-0.009705,0.008667,-0.992126,0.281924,0.432366,-0.054656,57,277,579,6224
1644183015.00728,-0.010315,0.010742,-0.994202,0.175053,0.417099,-0.222595,45,273,589,6240
1644183015.08322,-0.008484,0.010559,-0.989258,0.236122,0.493435,-0.161527,52,270,586,6192
1644183015.116572,-0.009033,0.010193,-0.990356,-0.053954,0.462901,-0.14626,42,292,584,6240
1644183015.152035,-0.010315,0.010925,-0.989746,0.373527,0.462901,-0.054656,38,282,586,6240
1644183015.247643,-0.009155,0.009094,-0.98999,0.144519,0.432366,-0.130992,49,280,589,6224
1644183015.296046,-0.008545,0.008789,-0.993103,0.388794,0.310229,-0.100458,39,276,580,6240
1644183015.344447,-0.009216,0.009644,-0.992371,0.052916,0.432366,-0.100458,52,280,582,6128
1644183015.392849,-0.006714,0.01239,-0.992493,0.327725,0.493435,-0.161527,54,275,589,6192
1644183015.441227,-0.005859,0.010193,-0.990967,0.129252,0.462901,-0.192061,51,279,576,6224
1644183015.489642,-0.009705,0.009399,-0.993835,0.312458,0.24916,-0.069924,41,271,587,6176
1644183015.538007,-0.008667,0.008972,-0.990906,0.297191,0.401832,0.036947,51,264,580,6176
1644183015.586404,-0.009521,0.011719,-0.99231,0.404061,0.508702,-0.314198,48,276,578,6256
1644183015.634814,-0.007141,0.010132,-0.992554,0.022382,0.310229,-0.008855,51,276,578,6128
1644183015.683211,-0.010803,0.012146,-0.992126,0.037649,0.493435,-0.069924,43,276,585,6176
1644183015.731598,-0.009277,0.007324,-0.990784,0.205588,0.432366,-0.268397,47,287,584,6192
1644183015.779994,-0.009705,0.011841,-0.990723,0.144519,0.279695,-0.115725,46,276,583,6240
1644183015.828422,-0.007385,0.010681,-0.992004,0.175053,0.539237,-0.192061,51,276,583,6176
1644183015.876822,-0.010437,0.010559,-0.992859,0.480397,0.432366,-0.085191,48,281,585,6160
1644183015.925246,-0.008362,0.009766,-0.990356,0.205588,0.523969,-0.085191,49,273,584,6192
1644183015.973606,-0.009094,0.01001,-0.99353,0.220855,0.401832,0.006412,54,273,584,6128
1644183016.021983,-0.009155,0.007629,-0.992004,0.236122,0.401832,-0.25313,45,277,584,6256
1644183016.088637,-0.007568,0.012207,-0.995239,0.297191,0.340763,-0.054656,51,274,585,6192
1644183016.16711,-0.007996,0.008667,-0.990356,0.190321,0.356031,-0.207328,43,269,587,6224
1644183016.2155,-0.008362,0.008789,-0.990356,0.144519,0.478168,-0.222595,57,275,589,6176
1644183016.263896,-0.006714,0.010132,-0.98999,0.220855,0.401832,-0.130992,49,280,575,6224
1644183016.312383,-0.008057,0.011902,-0.994263,0.236122,0.478168,-0.054656,52,280,577,6128
1644183016.360688,-0.010193,0.011902,-0.990356,0.404061,0.371298,-0.085191,48,276,576,6240
1644183016.409087,-0.007568,0.01123,-0.991211,0.175053,0.478168,-0.085191,36,281,580,6160
1644183016.457474,-0.006592,0.011353,-0.990173,0.175053,0.401832,-0.024122,42,280,575,6224
1644183016.505838,-0.0047,0.007141,-0.989258,0.205588,0.371298,-0.100458,57,290,591,6224
1644183016.554272,-0.009338,0.011047,-0.989502,0.251389,0.279695,-0.115725,39,279,576,6128
1644183016.602677,-0.007751,0.008728,-0.991821,0.113985,0.310229,-0.054656,51,266,583,6192
1644183016.651048,-0.006714,0.008362,-0.990112,0.266656,0.386565,-0.054656,52,270,586,6192
1644183016.699433,-0.007324,0.008362,-0.991089,0.068183,0.478168,-0.14626,49,275,579,6176
1644183016.747817,-0.00824,0.010803,-0.993103,0.342992,0.569771,-0.008855,47,277,579,6176
1644183016.796235,-0.008972,0.010742,-0.99292,0.098718,0.523969,-0.100458,42,280,586,6160
1644183016.844686,-0.006958,0.008545,-0.991089,0.220855,0.447634,-0.085191,41,276,583,6240
1644183016.89308,-0.008911,0.01178,-0.991882,0.037649,0.325496,-0.085191,48,274,590,6176
1644183016.941446,-0.008057,0.007935,-0.993225,0.08345,0.432366,-0.085191,49,275,586,6192
1644183016.989852,-0.010315,0.009827,-0.991821,0.35826,0.447634,-0.222595,48,266,580,6176
1644183017.038244,-0.011353,0.010376,-0.989624,0.266656,0.401832,-0.024122,53,279,585,6160
1644183017.099276,-0.008057,0.011963,-0.991089,0.220855,0.432366,0.006412,53,271,583,6160
1644183017.138662,-0.00769,0.007507,-0.995056,0.281924,0.508702,-0.130992,35,280,584,6160
1644183017.187609,-0.009094,0.008728,-0.991394,0.297191,0.401832,-0.268397,51,274,587,6128
1644183017.232552,-0.010803,0.011475,-0.990601,0.251389,0.447634,-0.054656,46,274,578,6160
1644183017.328534,-0.006653,0.00885,-0.992615,0.052916,0.523969,-0.192061,49,265,584,6192
1644183017.376934,-0.007385,0.00769,-0.994141,0.068183,0.417099,0.082748,49,268,586,6192
1644183017.42538,-0.010254,0.011719,-0.992615,0.190321,0.661374,-0.008855,45,273,584,6128
1644183017.473733,-0.008667,0.012329,-0.99054,0.190321,0.279695,-0.237863,47,275,579,6128
1644183017.522336,-0.008911,0.010193,-0.992676,0.342992,0.340763,-0.069924,45,282,577,6224
1644183017.570509,-0.010376,0.009094,-0.991333,0.220855,0.432366,-0.192061,48,276,592,6240
1644183017.61891,-0.006775,0.009644,-0.987976,0.35826,0.310229,-0.054656,54,282,584,6224
1644183017.667313,-0.006714,0.011841,-0.990601,0.190321,0.325496,0.021679,45,275,579,6224
1644183017.715693,-0.005676,0.013184,-0.989197,0.220855,0.386565,0.113282,53,271,583,6224
1644183017.764073,-0.006531,0.009644,-0.990295,0.236122,0.325496,-0.222595,47,280,591,6192
1644183017.812493,-0.010498,0.011414,-0.990051,0.35826,0.478168,-0.207328,47,268,586,6176
1644183017.860914,-0.006226,0.014038,-0.990234,0.281924,0.478168,0.052214,48,269,585,6192
1644183017.909302,-0.010742,0.01001,-0.992493,0.098718,0.432366,-0.039389,55,281,594,6224
1644183017.957667,-0.008118,0.008667,-0.992432,0.251389,0.539237,-0.085191,53,274,594,6192
1644183018.00607,-0.005127,0.00885,-0.993835,0.113985,0.462901,-0.085191,47,280,586,6176
1644183018.063132,-0.009216,0.008789,-0.992126,0.342992,0.401832,-0.161527,54,265,591,6128
1644183018.104175,-0.00769,0.009644,-0.991333,0.297191,0.462901,0.021679,38,280,586,6192
1644183018.151239,-0.007568,0.010071,-0.991699,0.327725,0.356031,-0.054656,46,274,583,6224
1644183018.199627,-0.008545,0.00647,-0.99176,0.373527,0.325496,-0.161527,54,270,589,6128
1644183018.248318,-0.010071,0.009888,-0.991516,0.251389,0.432366,-0.130992,54,273,591,6192
1644183018.298891,-0.007996,0.008911,-0.992004,0.373527,0.310229,-0.161527,42,282,589,6192
1644183018.348843,-0.009155,0.008911,-0.992126,0.113985,0.294962,-0.069924,49,270,589,6176
1644183018.394012,-0.010315,0.011047,-0.992493,0.159786,0.310229,-0.085191,57,280,582,6192
1644183018.490007,-0.009338,0.009216,-0.992615,0.236122,0.340763,-0.192061,47,273,584,6128
1644183018.538352,-0.010986,0.008362,-0.991333,0.266656,0.523969,-0.192061,45,275,584,6224
1644183018.586751,-0.011658,0.006653,-0.99231,0.297191,0.417099,0.006412,52,277,579,6160
1644183018.635183,-0.009583,0.00946,-0.991638,0.251389,0.386565,0.021679,46,288,585,6176
1644183018.683566,-0.009216,0.010986,-0.992676,0.373527,0.539237,-0.008855,55,279,592,6224
1644183018.731956,-0.00885,0.00946,-0.993042,0.35826,0.417099,-0.161527,55,276,578,6128
1644183018.78035,-0.006287,0.01062,-0.992065,0.190321,0.523969,-0.100458,54,280,584,6176
1644183018.828736,-0.006897,0.011719,-0.993225,0.068183,0.233893,-0.039389,45,280,591,6256
1644183018.877178,-0.008728,0.012329,-0.991272,0.312458,0.401832,-0.069924,41,276,576,6160
1644183018.92555,-0.008545,0.009583,-0.991211,0.266656,0.447634,-0.100458,46,286,583,6128
1644183018.973952,-0.005554,0.011475,-0.992188,0.266656,0.493435,-0.069924,40,287,582,6176
1644183019.022319,-0.007507,0.010071,-0.991516,0.342992,0.508702,-0.069924,45,277,586,6224
1644183019.085529,-0.006836,0.011292,-0.993347,0.144519,0.478168,0.036947,54,282,591,6224
1644183019.119151,-0.006775,0.010986,-0.991516,0.205588,0.554504,-0.100458,42,268,579,6224
1644183019.167499,-0.00708,0.010071,-0.989746,0.205588,0.447634,-0.039389,38,280,596,6192
1644183019.215875,-0.010498,0.008789,-0.991333,0.098718,0.447634,-0.14626,45,282,593,6176
1644183019.264271,-0.004822,0.014343,-0.990906,0.144519,0.676641,-0.14626,36,271,583,6176
1644183019.312677,-0.008301,0.010193,-0.991028,0.159786,0.432366,-0.024122,45,280,582,6192
1644183019.361058,-0.007385,0.010498,-0.990967,0.144519,0.325496,-0.14626,53,269,583,6192
1644183019.411054,-0.007446,0.009216,-0.991516,0.220855,0.386565,-0.14626,54,273,575,6288
1644183019.461383,-0.009583,0.008667,-0.991821,0.281924,0.325496,-0.024122,58,274,587,6192
1644183019.506562,-0.007629,0.009033,-0.988647,0.220855,0.371298,-0.069924,49,275,589,6176
1644183019.60304,-0.009216,0.012451,-0.990112,0.312458,0.294962,-0.14626,46,276,587,6256
1644183019.651381,-0.00824,0.00946,-0.990112,0.297191,0.493435,-0.207328,52,275,582,6240
1644183019.699805,-0.01001,0.010071,-0.990173,0.129252,0.386565,-0.176794,46,279,580,6128
1644183019.748189,-0.010376,0.01355,-0.988586,0.266656,0.294962,-0.100458,52,282,584,6192
1644183019.796597,-0.008301,0.009338,-0.992493,0.129252,0.432366,-0.25313,49,265,582,6128
1644183019.845022,-0.007935,0.008179,-0.990295,0.190321,0.462901,-0.100458,43,276,580,6128
1644183019.893414,-0.009583,0.010437,-0.991699,0.35826,0.310229,0.006412,43,274,590,6192
1644183019.941807,-0.008972,0.008606,-0.993103,0.205588,0.569771,-0.100458,53,279,585,6224
1644183019.990179,-0.009338,0.010803,-0.994446,0.373527,0.447634,0.006412,53,266,587,6192
1644183020.038598,-0.00592,0.009949,-0.990173,0.190321,0.264427,0.006412,51,283,585,6160
1644183020.087022,-0.012024,0.009705,-0.990723,0.175053,0.508702,-0.115725,47,265,575,6192
1644183020.135384,-0.007629,0.010315,-0.991394,0.205588,0.386565,0.021679,51,266,573,6080
1644183020.18376,-0.011353,0.010559,-0.995972,0.312458,0.462901,-0.176794,46,266,585,6112
1644183020.232232,-0.008118,0.00769,-0.990967,0.236122,0.371298,-0.024122,42,277,586,6160
1644183020.28049,-0.009399,0.00769,-0.992249,0.373527,0.24916,-0.085191,57,277,586,6176
1644183020.328918,-0.00769,0.008728,-0.99231,0.113985,0.356031,-0.130992,51,276,585,6192
1644183020.377298,-0.008484,0.010071,-0.989624,0.312458,0.340763,-0.130992,53,281,580,6224
1644183020.425691,-0.006714,0.010986,-0.992554,0.129252,0.371298,-0.069924,45,282,582,6192
1644183020.474107,-0.009644,0.01123,-0.992798,0.08345,0.417099,0.036947,45,280,575,6128
1644183020.523763,-0.007446,0.007751,-0.991455,0.144519,0.356031,0.052214,43,276,585,6160
1644183020.574112,-0.009155,0.012146,-0.991699,0.113985,0.401832,-0.130992,47,285,584,6176
1644183020.624173,-0.010559,0.008362,-0.990601,0.220855,0.401832,-0.176794,47,268,589,6160
1644183020.716052,-0.01001,0.012207,-0.989746,0.220855,0.447634,-0.008855,51,288,583,6192
1644183020.76444,-0.01001,0.009766,-0.990906,0.175053,0.325496,-0.207328,48,279,580,6160
1644183020.81286,-0.009338,0.008057,-0.991516,0.220855,0.478168,0.006412,55,262,583,6224
1644183020.861221,-0.009583,0.010986,-0.991272,0.266656,0.493435,-0.115725,48,274,583,6176
1644183020.909634,-0.009766,0.00708,-0.991394,0.281924,0.539237,-0.115725,47,277,579,6160
1644183020.958541,-0.011047,0.009888,-0.992859,0.236122,0.417099,-0.283664,46,271,569,6224
1644183021.006433,-0.007507,0.011536,-0.987915,0.35826,0.508702,-0.14626,49,275,586,6176
1644183021.067475,-0.009583,0.010132,-0.991943,0.159786,0.386565,-0.024122,52,277,582,6160
1644183021.103226,-0.010803,0.008667,-0.993103,0.098718,0.478168,-0.222595,46,276,587,6176
1644183021.151603,-0.011963,0.009888,-0.994324,0.159786,0.386565,-0.130992,35,282,577,6192
1644183021.200022,-0.010315,0.008545,-0.992859,0.35826,0.401832,-0.14626,48,279,585,6160
1644183021.248409,-0.008972,0.009094,-0.989685,0.190321,0.356031,-0.14626,55,269,583,6160
1644183021.296814,-0.009033,0.01001,-0.992554,0.007115,0.432366,-0.14626,51,276,587,6160
1644183021.345226,-0.008484,0.008301,-0.989624,0.266656,0.386565,-0.039389,45,273,589,6224
1644183021.393587,-0.008484,0.010254,-0.992188,0.113985,0.462901,-0.039389,53,281,592,6240
1644183021.441987,-0.013245,0.009338,-0.993835,0.159786,0.371298,0.082748,55,283,578,6176
1644183021.490385,-0.010315,0.007935,-0.989685,0.251389,0.356031,-0.100458,46,279,576,6192
1644183021.538788,-0.008667,0.011108,-0.994629,0.220855,0.493435,-0.161527,55,266,583,6160
1644183021.587197,-0.007874,0.007141,-0.98999,0.098718,0.218626,-0.039389,42,275,582,6224
1644183021.637487,-0.008423,0.009583,-0.992065,0.251389,0.539237,-0.069924,54,282,584,6224
1644183021.687677,-0.00824,0.014282,-0.990051,0.159786,0.386565,-0.054656,48,274,578,6160
1644183021.73788,-0.010498,0.009644,-0.989624,0.327725,0.417099,-0.054656,43,271,585,6160
1644183021.829162,-0.008789,0.00885,-0.991028,0.08345,0.310229,-0.024122,42,273,579,6160
1644183021.877509,-0.009949,0.011414,-0.993347,0.312458,0.340763,-0.069924,46,288,573,6224
1644183021.925919,-0.009521,0.01123,-0.990845,0.175053,0.340763,-0.207328,47,282,586,6128
1644183021.97431,-0.004883,0.007324,-0.991943,0.220855,0.432366,-0.100458,47,273,575,6192
1644183022.022722,-0.006348,0.012268,-0.993103,0.068183,0.447634,-0.069924,48,276,583,6176
1644183022.071146,-0.010132,0.00946,-0.992554,0.205588,0.646107,0.098015,43,276,594,6256
1644183022.119446,-0.008118,0.007202,-0.991089,0.205588,0.615573,0.159084,52,282,598,6160
1644183022.1678,-0.008179,0.009949,-0.98999,0.327725,0.493435,-0.024122,48,279,583,6128
1644183022.216245,-0.010315,0.01001,-0.992676,0.281924,0.539237,-0.222595,48,274,587,6176
1644183022.264697,-0.008972,0.010315,-0.990662,0.236122,0.340763,-0.14626,52,282,582,6176
1644183022.313032,-0.008606,0.010925,-0.991028,0.312458,0.279695,-0.176794,46,271,585,6240
1644183022.361409,-0.009521,0.010376,-0.991333,0.220855,0.508702,-0.069924,36,279,590,6176
1644183022.4098,-0.007263,0.011353,-0.992615,0.297191,0.493435,-0.115725,51,286,578,6160
1644183022.458198,-0.009033,0.012207,-0.994507,0.236122,0.401832,-0.130992,57,282,586,6192
1644183022.506581,-0.008667,0.012756,-0.993042,0.297191,0.356031,-0.14626,51,281,585,6176
1644183022.555026,-0.007996,0.010376,-0.991028,0.08345,0.356031,-0.115725,54,275,586,6176
1644183022.603373,-0.007446,0.010681,-0.99115,0.236122,0.478168,-0.115725,58,271,578,6240
1644183022.651764,-0.010498,0.01062,-0.989807,0.236122,0.447634,-0.130992,45,280,579,6160
1644183022.700537,-0.005859,0.008972,-0.989563,0.312458,0.371298,-0.207328,48,276,585,6160
1644183022.748922,-0.007507,0.009705,-0.990295,0.297191,0.386565,-0.161527,38,277,589,6192
1644183022.80023,-0.006287,0.011475,-0.991577,0.236122,0.356031,-0.115725,48,283,576,6224
1644183022.850667,-0.010315,0.00885,-0.991821,0.281924,0.325496,-0.069924,54,268,582,6176
1644183022.895227,-0.004639,0.010925,-0.993042,0.236122,0.340763,-0.069924,46,271,585,6224
1644183022.990699,-0.010925,0.010437,-0.994202,0.342992,0.325496,-0.14626,55,279,592,6224
1644183023.038928,-0.007935,0.007874,-0.990295,0.327725,0.340763,-0.100458,43,281,590,6224
1644183023.087423,-0.007996,0.00824,-0.993225,0.281924,0.401832,-0.161527,52,270,591,6192
1644183023.135705,-0.01062,0.009155,-0.989868,0.312458,0.447634,-0.039389,40,275,584,6176
1644183023.184093,-0.008606,0.009033,-0.990601,0.08345,0.24916,0.021679,45,277,589,6192
1644183023.232508,-0.010681,0.012024,-0.987305,0.35826,0.432366,-0.115725,52,268,586,6224
1644183023.280874,-0.010986,0.011108,-0.992615,0.159786,0.325496,-0.207328,57,277,593,6240
1644183023.329267,-0.011047,0.009033,-0.989929,0.281924,0.447634,-0.115725,48,283,587,6224
1644183023.377663,-0.010559,0.010132,-0.991394,0.327725,0.325496,-0.054656,55,281,583,6160
1644183023.42605,-0.00824,0.012695,-0.994568,0.205588,0.417099,0.006412,43,266,580,6160
1644183023.47446,-0.00885,0.008667,-0.992065,0.022382,0.340763,-0.085191,62,279,585,6176
1644183023.522868,-0.007202,0.008911,-0.991577,0.129252,0.401832,-0.115725,48,269,576,6176
1644183023.57121,-0.009766,0.010376,-0.993103,0.052916,0.310229,-0.085191,45,282,589,6160
1644183023.619619,-0.008911,0.012024,-0.991943,0.144519,0.371298,-0.14626,51,279,585,6176
1644183023.668033,-0.008606,0.011169,-0.990356,0.08345,0.356031,-0.069924,53,276,583,6192
1644183023.716413,-0.009827,0.008362,-0.992126,0.190321,0.294962,-0.161527,40,282,584,6160
1644183023.764805,-0.010315,0.012695,-0.99408,0.281924,0.432366,-0.176794,47,277,596,6176
1644183023.813233,-0.00824,0.007507,-0.99176,0.08345,0.310229,-0.207328,48,271,580,6176
1644183023.861641,-0.008423,0.011169,-0.991943,0.052916,0.340763,0.006412,49,273,582,6128
1644183023.912027,-0.008179,0.009216,-0.994141,0.220855,0.325496,-0.024122,53,262,585,6224
1644183023.961827,-0.010315,0.008423,-0.993225,0.037649,0.417099,0.098015,38,277,596,6240
1644183024.067581,-0.008118,0.00946,-0.99176,0.159786,0.401832,-0.130992,53,281,583,6240
1644183024.106915,-0.008667,0.009949,-0.990356,0.220855,0.356031,-0.115725,47,275,589,6224
1644183024.151927,-0.006958,0.009399,-0.993469,0.281924,0.432366,-0.100458,48,269,583,6240
1644183024.20033,-0.008423,0.008911,-0.991455,0.159786,0.294962,-0.176794,52,277,591,6192
1644183024.248716,-0.007935,0.011597,-0.993042,0.419328,0.371298,0.143817,48,283,578,6112
1644183024.297117,-0.009705,0.009766,-0.992249,0.205588,0.417099,-0.024122,53,291,571,6192
1644183024.345518,-0.008423,0.009216,-0.991821,0.113985,0.600305,-0.069924,49,280,593,6160
1644183024.393911,-0.006531,0.010803,-0.99054,0.175053,0.63084,-0.008855,49,277,584,6176
1644183024.44232,-0.008057,0.008179,-0.98938,0.449863,0.462901,0.006412,53,271,573,6176
1644183024.490695,-0.009949,0.008789,-0.992126,0.342992,0.294962,-0.192061,48,274,580,6176
1644183024.539092,-0.009827,0.00885,-0.990784,-0.008153,0.493435,-0.176794,48,281,587,6224
1644183024.587725,-0.009644,0.010193,-0.98999,0.205588,0.569771,-0.085191,53,274,587,6224
1644183024.637294,-0.00769,0.007446,-0.990845,0.266656,0.508702,-0.100458,45,275,586,6288
1644183024.687882,-0.009033,0.010803,-0.990234,0.068183,0.401832,-0.054656,47,273,582,6176
1644183024.737802,-0.008484,0.008423,-0.993408,0.220855,0.401832,-0.14626,47,277,589,6192
1644183024.829424,-0.009033,0.006165,-0.991272,0.251389,0.325496,-0.024122,43,271,590,6192
1644183024.877867,-0.008118,0.00946,-0.992188,0.251389,0.585038,-0.039389,43,279,580,6240
1644183024.926261,-0.009705,0.011658,-0.994751,0.251389,0.447634,-0.100458,39,279,583,6240
1644183024.974673,-0.008057,0.011902,-0.990967,0.175053,0.310229,-0.207328,46,266,580,6160
1644183025.023121,-0.00824,0.011353,-0.991821,0.190321,0.432366,-0.115725,39,276,580,6240
1644183025.07153,-0.009277,0.011414,-0.987793,0.144519,0.310229,-0.14626,49,275,591,6224
1644183025.119848,-0.009583,0.007629,-0.990051,0.266656,0.447634,-0.100458,40,275,577,6176
1644183025.168206,-0.008179,0.008484,-0.989746,0.159786,0.340763,-0.14626,42,282,582,6160
1644183025.21658,-0.007324,0.011475,-0.989929,0.281924,0.401832,-0.115725,46,274,576,6128
1644183025.265075,-0.009399,0.010376,-0.988464,0.327725,0.523969,0.006412,35,275,589,6176
1644183025.313387,-0.00885,0.008301,-0.991089,0.327725,0.279695,-0.130992,46,276,576,6192
1644183025.361774,-0.011475,0.009705,-0.991577,0.251389,0.356031,-0.130992,51,274,576,6224
1644183025.410154,-0.008545,0.010681,-0.990967,0.113985,0.462901,-0.008855,51,281,578,6240
1644183025.458553,-0.011719,0.009338,-0.989624,0.312458,0.294962,-0.161527,38,280,586,6176
1644183025.506926,-0.010498,0.008118,-0.991638,0.159786,0.447634,-0.176794,55,276,592,6240
1644183025.555337,-0.01062,0.008545,-0.993042,0.251389,0.523969,-0.100458,58,269,587,6256
1644183025.603698,-0.010254,0.010315,-0.990784,0.037649,0.356031,-0.054656,46,271,594,6224
1644183025.652168,-0.008667,0.009705,-0.991333,0.373527,0.386565,-0.130992,51,274,594,6224
1644183025.700519,-0.00647,0.009033,-0.991333,0.205588,0.356031,-0.069924,40,275,575,6176
1644183025.748935,-0.009399,0.008301,-0.993347,0.205588,0.493435,-0.176794,54,270,577,6128
1644183025.799409,-0.008911,0.007324,-0.991882,0.190321,0.493435,-0.207328,49,273,584,6176
1644183025.850149,-0.007996,0.011353,-0.990479,0.220855,0.493435,-0.207328,46,269,587,6160
1644183025.89518,-0.007019,0.010071,-0.990356,0.205588,0.417099,-0.14626,46,271,576,6192
1644183025.990907,-0.011292,0.011475,-0.992615,0.236122,0.371298,-0.14626,52,260,589,6112
1644183026.0393,-0.007935,0.008362,-0.991028,0.08345,0.432366,-0.14626,42,275,579,6192
1644183026.088213,-0.007996,0.005737,-0.992615,0.220855,0.386565,-0.207328,46,274,585,6176
1644183026.1361,-0.007874,0.011597,-0.993042,0.236122,0.340763,-0.039389,43,276,587,6192
1644183026.184448,-0.007507,0.009033,-0.990051,0.251389,0.371298,-0.14626,48,276,585,6192
1644183026.232825,-0.006958,0.010193,-0.991699,0.266656,0.432366,-0.039389,52,285,579,6224
1644183026.281221,-0.008667,0.00946,-0.992371,0.205588,0.340763,0.159084,47,282,584,6256
1644183026.329623,-0.008484,0.010193,-0.990479,0.190321,0.264427,-0.130992,59,275,584,6224
1644183026.37802,-0.007446,0.013733,-0.991455,0.159786,0.417099,-0.039389,48,279,578,6240
1644183026.426407,-0.006653,0.009521,-0.990723,0.205588,0.356031,-0.085191,53,276,578,6224
1644183026.474824,-0.008728,0.012024,-0.991089,0.159786,0.371298,-0.085191,55,288,580,6176
1644183026.523209,-0.006897,0.012085,-0.992554,0.159786,0.340763,-0.069924,47,265,575,6224
1644183026.571593,-0.008972,0.011353,-0.992249,0.312458,0.264427,-0.008855,39,279,585,6192
1644183026.619985,-0.009827,0.010864,-0.987732,0.220855,0.493435,-0.130992,47,285,586,6256
1644183026.668382,-0.008423,0.009094,-0.991394,0.144519,0.371298,-0.024122,51,269,585,6128
1644183026.716754,-0.003296,0.011963,-0.989136,0.159786,0.523969,0.082748,57,282,589,6192
1644183026.765207,-0.010193,0.009338,-0.993896,0.342992,0.508702,-0.130992,55,279,585,6160
1644183026.8136,-0.007507,0.009033,-0.989563,0.129252,0.417099,0.067481,45,285,577,6160
1644183026.861985,-0.008606,0.011292,-0.991821,0.251389,0.371298,-0.161527,45,273,582,6160
1644183026.912266,-0.011475,0.00824,-0.992188,0.220855,0.325496,0.021679,47,275,586,6128
1644183026.962255,-0.00708,0.010742,-0.990112,0.342992,0.462901,-0.100458,49,275,589,6192
1644183027.069559,-0.009155,0.012207,-0.988892,0.113985,0.356031,-0.115725,47,268,577,6240
1644183027.106236,-0.00824,0.009583,-0.990479,0.297191,0.356031,-0.100458,49,273,586,6192
1644183027.152369,-0.008606,0.009644,-0.994629,0.236122,0.417099,-0.14626,48,271,585,6128
1644183027.200681,-0.00885,0.010071,-0.993225,0.312458,0.401832,0.098015,47,277,586,6224
1644183027.249089,-0.009094,0.007996,-0.992432,0.144519,0.356031,-0.100458,38,268,591,6112
1644183027.297479,-0.007263,0.009155,-0.99176,0.144519,0.447634,-0.192061,48,283,578,6256
1644183027.345875,-0.00946,0.008606,-0.992737,0.297191,0.447634,-0.069924,51,283,585,6224
1644183027.394272,-0.008179,0.011108,-0.993347,0.251389,0.401832,-0.161527,58,281,590,6160
1644183027.442676,-0.006897,0.010925,-0.989624,0.129252,0.539237,-0.115725,45,273,589,6224
1644183027.491063,-0.008606,0.009888,-0.990234,0.129252,0.417099,-0.039389,58,266,578,6224
1644183027.53944,-0.009033,0.01123,-0.992493,0.129252,0.478168,-0.024122,51,274,580,6192
1644183027.587874,-0.010559,0.011536,-0.991333,0.205588,0.508702,-0.085191,54,277,584,6160
1644183027.63712,-0.006775,0.007751,-0.99115,0.175053,0.356031,-0.14626,61,273,579,6224
1644183027.687753,-0.007324,0.011047,-0.993835,0.08345,0.493435,-0.14626,41,279,580,6224
1644183027.737773,-0.009888,0.010437,-0.992249,0.159786,0.462901,0.052214,53,279,585,6176
1644183027.82981,-0.008179,0.006287,-0.990906,0.220855,0.371298,-0.115725,39,269,580,6224
1644183027.878214,-0.007751,0.009033,-0.990051,0.144519,0.24916,-0.100458,47,277,591,6160
1644183027.92663,-0.006836,0.010498,-0.994812,0.159786,0.371298,-0.130992,46,271,587,6256
1644183027.975125,-0.009827,0.01062,-0.993408,0.113985,0.432366,-0.069924,42,268,579,6160
1644183028.023419,-0.006836,0.009033,-0.992432,0.220855,0.447634,-0.069924,57,280,582,6224
1644183028.073136,-0.009399,0.010315,-0.993347,0.297191,0.371298,-0.054656,49,277,593,6176
1644183028.120188,-0.009033,0.009705,-0.992004,0.129252,0.310229,-0.115725,53,269,587,6176
1644183028.168579,-0.007568,0.008789,-0.991943,0.220855,0.325496,-0.054656,51,264,590,6128
1644183028.216985,-0.011963,0.010254,-0.991943,0.144519,0.401832,-0.161527,48,281,576,6176
1644183028.265354,-0.009094,0.008545,-0.991211,0.236122,0.310229,-0.115725,51,286,583,6224
1644183028.313794,-0.010864,0.009338,-0.993286,0.144519,0.447634,0.021679,52,275,586,6160
1644183028.362247,-0.010559,0.010071,-0.98938,0.342992,0.447634,-0.161527,54,270,586,6304
1644183028.410559,-0.012817,0.007935,-0.992737,0.236122,0.493435,-0.161527,49,277,591,6176
1644183028.458967,-0.01062,0.011597,-0.992676,-0.038687,0.340763,-0.085191,49,287,589,6224
1644183028.507322,-0.009155,0.009583,-0.991638,0.327725,0.417099,-0.405802,39,279,583,6192
1644183028.555743,-0.00885,0.008728,-0.991455,0.281924,0.279695,-0.085191,57,287,584,6224
1644183028.604138,-0.008972,0.009949,-0.991577,0.159786,0.462901,-0.085191,47,280,584,6240
1644183028.65253,-0.007874,0.008606,-0.990662,0.205588,0.294962,0.021679,53,279,594,6224
1644183028.701447,-0.009155,0.008301,-0.993286,0.205588,0.356031,-0.161527,30,275,582,6192
1644183028.75177,-0.006775,0.008667,-0.991211,0.175053,0.569771,-0.039389,47,280,579,6192
1644183028.801801,-0.006775,0.007324,-0.990417,0.129252,0.401832,-0.222595,42,277,591,6192
1644183028.846285,-0.006897,0.009094,-0.990234,0.159786,0.539237,-0.176794,51,271,580,6128
1644183028.94289,-0.008606,0.010986,-0.989441,0.220855,0.401832,-0.192061,53,276,576,6224
1644183028.991266,-0.009827,0.008118,-0.992004,0.205588,0.432366,-0.222595,49,270,579,6160
1644183029.039659,-0.005493,0.011169,-0.991577,0.007115,0.401832,-0.008855,45,280,584,6160
1644183029.094177,-0.010315,0.010437,-0.991394,0.190321,0.294962,-0.054656,46,276,585,6160
1644183029.136368,-0.011169,0.009705,-0.991394,0.159786,0.554504,-0.024122,57,268,582,6224
1644183029.184806,-0.00885,0.012634,-0.991943,0.312458,0.569771,-0.14626,47,268,572,6128
1644183029.233202,-0.009888,0.008667,-0.990906,0.251389,0.325496,-0.100458,48,276,583,6160
1644183029.281574,-0.008606,0.007263,-0.991394,0.312458,0.371298,0.082748,54,275,579,6160
1644183029.329986,-0.008118,0.009827,-0.99115,0.144519,0.356031,0.021679,43,264,590,6128
1644183029.378388,-0.009583,0.007202,-0.991638,0.281924,0.432366,-0.14626,49,268,591,6128
1644183029.426744,-0.010132,0.011597,-0.990967,0.129252,0.356031,-0.14626,49,273,575,6224
1644183029.475253,-0.007385,0.009155,-0.989441,0.129252,0.279695,-0.237863,58,271,590,6192
1644183029.523532,-0.01001,0.010742,-0.991333,0.281924,0.493435,-0.054656,46,276,569,6128
1644183029.571962,-0.011719,0.009583,-0.992737,0.205588,0.325496,0.174351,48,288,585,6176
1644183029.620336,-0.010071,0.00708,-0.990601,0.159786,0.356031,-0.237863,54,282,582,6128
1644183029.668711,-0.009155,0.007324,-0.992004,0.190321,0.294962,0.021679,43,281,590,6176
1644183029.717123,-0.008972,0.010681,-0.99176,0.35826,0.356031,-0.176794,46,271,590,6192
1644183029.765527,-0.012207,0.011719,-0.990723,0.205588,0.386565,-0.237863,48,257,578,6176
1644183029.813967,-0.005737,0.010315,-0.992065,0.236122,0.417099,-0.130992,45,277,589,6160
1644183029.863762,-0.008179,0.009888,-0.991333,0.159786,0.310229,-0.14626,51,269,585,6192
1644183029.914472,-0.009827,0.009644,-0.994629,0.220855,0.279695,-0.237863,51,276,580,6160
1644183029.96409,-0.010681,0.010742,-0.990417,0.113985,0.432366,-0.176794,46,279,580,6192
1644183030.067891,-0.007141,0.009705,-0.99353,0.205588,0.493435,-0.192061,48,274,580,6224
1644183030.105338,-0.008057,0.009216,-0.98877,0.144519,0.386565,-0.024122,58,281,590,6256
1644183030.152657,-0.007507,0.009033,-0.992126,0.266656,0.340763,-0.039389,59,273,589,6192
1644183030.201056,-0.00885,0.009521,-0.992615,0.342992,0.417099,-0.115725,40,275,586,6176
1644183030.249425,-0.010986,0.010437,-0.991394,0.205588,0.585038,-0.115725,52,280,577,6192
1644183030.297846,-0.008118,0.010132,-0.990601,0.404061,0.493435,-0.130992,46,276,585,6224
1644183030.346214,-0.008972,0.012451,-0.989868,0.281924,0.417099,-0.176794,40,287,589,6224
1644183030.394886,-0.008423,0.010437,-0.991516,0.297191,0.233893,-0.130992,45,265,579,6256
1644183030.443038,-0.007324,0.010254,-0.993042,-0.053954,0.24916,-0.25313,45,282,584,6192
1644183030.491779,-0.01001,0.010071,-0.992004,0.251389,0.264427,-0.008855,41,266,587,6160
1644183030.539804,-0.009583,0.008301,-0.992126,0.251389,0.401832,-0.375267,54,275,584,6160
1644183030.588189,-0.010376,0.00592,-0.991028,0.266656,0.386565,-0.14626,40,282,591,6240
1644183030.636583,-0.01178,0.010071,-0.990417,0.236122,0.462901,-0.100458,38,277,577,6224
1644183030.685099,-0.009216,0.009216,-0.993958,0.35826,0.432366,-0.024122,54,282,586,6224
1644183030.735381,-0.008972,0.009277,-0.989807,0.175053,0.401832,0.021679,46,264,583,6192
1644183030.785861,-0.005981,0.00946,-0.992004,0.08345,0.356031,-0.069924,49,273,591,6192
1644183030.830706,-0.005737,0.011841,-0.992981,0.266656,0.401832,-0.008855,40,268,577,6192
1644183030.926977,-0.007629,0.008423,-0.992065,0.251389,0.371298,-0.192061,46,283,580,6192
1644183030.975482,-0.008728,0.009583,-0.991272,0.08345,0.432366,-0.100458,48,281,583,6224
1644183031.023776,-0.008728,0.009338,-0.993347,0.297191,0.447634,-0.115725,47,270,582,6240
1644183031.07228,-0.008728,0.008911,-0.992126,0.327725,0.325496,-0.039389,55,281,590,6192
1644183031.120551,-0.007568,0.009155,-0.992004,0.175053,0.462901,0.036947,58,266,576,6224
1644183031.168903,-0.007568,0.009644,-0.992065,0.266656,0.386565,-0.054656,47,265,589,6192
1644183031.217273,-0.007324,0.008362,-0.993347,0.205588,0.371298,-0.115725,38,273,579,6176
1644183031.265686,-0.008118,0.010559,-0.98999,0.159786,0.279695,-0.069924,58,269,594,6160
1644183031.314092,-0.008545,0.010132,-0.993103,0.159786,0.386565,-0.069924,43,271,576,6128
1644183031.362495,-0.008301,0.007751,-0.992188,0.098718,0.279695,-0.130992,43,281,580,6192
1644183031.410878,-0.008362,0.009949,-0.989929,0.266656,0.493435,0.021679,54,280,582,6224
1644183031.459258,-0.007141,0.009644,-0.993469,0.190321,0.417099,-0.100458,47,268,584,6224
1644183031.50764,-0.008423,0.010254,-0.993713,0.281924,0.386565,-0.054656,48,281,583,6176
1644183031.556042,-0.00708,0.011047,-0.992249,0.144519,0.417099,-0.161527,52,270,577,6176
1644183031.604438,-0.010803,0.00769,-0.99353,0.129252,0.294962,-0.008855,58,279,576,6160
1644183031.652854,-0.008423,0.010376,-0.990967,0.342992,0.401832,-0.130992,53,271,587,6176
1644183031.701224,-0.008484,0.011475,-0.991089,0.098718,0.371298,-0.222595,58,279,585,6176
1644183031.749595,-0.006775,0.01001,-0.994934,0.113985,0.356031,-0.039389,42,280,582,6176
1644183031.798018,-0.009644,0.009888,-0.990479,0.220855,0.462901,-0.222595,48,279,578,6224
1644183031.847599,-0.00708,0.009399,-0.993164,0.373527,0.554504,-0.14626,53,264,576,6224
1644183031.898187,-0.010925,0.008606,-0.99115,0.266656,0.417099,-0.100458,49,273,593,6192
1644183031.948531,-0.007629,0.00769,-0.99231,0.175053,0.325496,-0.085191,43,274,583,6224
1644183031.992973,-0.006592,0.010681,-0.992126,0.144519,0.569771,0.006412,47,275,577,6176
1644183032.088485,-0.008545,0.010193,-0.991211,0.251389,0.478168,-0.207328,53,286,583,6224
1644183032.136809,-0.011108,0.011108,-0.99176,0.281924,0.340763,-0.14626,58,274,578,6176
1644183032.185357,-0.008728,0.007385,-0.99115,0.129252,0.24916,-0.207328,43,281,573,6192
1644183032.233557,-0.008911,0.012146,-0.99408,0.190321,0.417099,-0.161527,51,281,573,6224
1644183032.28194,-0.008179,0.01062,-0.990662,0.205588,0.325496,0.021679,52,273,577,6192
1644183032.330341,-0.009338,0.010864,-0.99231,0.236122,0.493435,-0.085191,48,283,580,6160
1644183032.378711,-0.007568,0.010498,-0.991272,0.236122,0.554504,-0.176794,51,279,578,6176
1644183032.427115,-0.007874,0.010559,-0.992065,0.266656,0.294962,-0.069924,55,276,583,6176
1644183032.475512,-0.008606,0.009644,-0.989075,0.052916,0.462901,-0.085191,57,273,589,6224
1644183032.523915,-0.006958,0.009277,-0.99054,0.159786,0.279695,-0.14626,45,270,582,6224
1644183032.572309,-0.008789,0.010498,-0.991028,0.129252,0.340763,-0.100458,43,269,580,6176
1644183032.620693,-0.006653,0.009949,-0.991394,0.205588,0.447634,-0.069924,52,277,584,6240
1644183032.669069,-0.009094,0.009705,-0.991943,0.068183,0.432366,-0.039389,42,277,586,6224
1644183032.717482,-0.007996,0.008789,-0.992798,0.175053,0.417099,-0.085191,57,273,584,6176
1644183032.765868,-0.008423,0.009155,-0.991943,0.190321,0.386565,-0.069924,59,282,589,6224
1644183032.814267,-0.009949,0.006531,-0.99231,0.175053,0.401832,-0.192061,45,273,575,6160
1644183032.862725,-0.009094,0.010437,-0.991394,0.190321,0.310229,-0.130992,54,275,582,6176
1644183032.911238,-0.008179,0.009399,-0.989197,0.251389,0.371298,-0.222595,53,279,592,6160
1644183032.959501,-0.009338,0.009155,-0.991699,0.251389,0.340763,-0.130992,57,265,584,6224
1644183033.068614,-0.009033,0.010193,-0.992065,0.251389,0.325496,-0.008855,59,264,583,6176
1644183033.105501,-0.008545,0.011414,-0.992493,0.220855,0.279695,-0.161527,52,282,584,6224
1644183033.15306,-0.010132,0.009094,-0.990784,0.342992,0.585038,-0.069924,49,275,584,6192
1644183033.201507,-0.009644,0.008179,-0.992004,0.312458,0.356031,-0.176794,43,276,597,6192
1644183033.249779,-0.010315,0.011353,-0.991699,0.297191,0.325496,-0.14626,39,283,580,6176
1644183033.298201,-0.006165,0.009949,-0.991821,0.129252,0.447634,-0.039389,43,286,585,6224
1644183033.346593,-0.010193,0.007385,-0.990112,0.08345,0.432366,-0.130992,41,271,585,6160
1644183033.395122,-0.004639,0.009705,-0.992371,0.190321,0.447634,0.006412,60,274,585,6160
1644183033.443377,-0.01062,0.010986,-0.991333,0.190321,0.386565,0.067481,42,275,584,6224
1644183033.492188,-0.008667,0.012695,-0.991882,0.236122,0.478168,0.006412,45,275,579,6192
1644183033.540153,-0.009521,0.012817,-0.992981,0.190321,0.401832,-0.039389,51,276,585,6240
1644183033.588517,-0.008972,0.015991,-0.989929,0.220855,0.294962,-0.268397,47,280,584,6240
1644183033.636976,-0.007263,0.011963,-0.990173,0.190321,0.401832,-0.085191,47,270,579,6240
1644183033.685916,-0.007263,0.013,-0.989563,0.144519,0.462901,-0.344733,54,263,591,6128
1644183033.736521,-0.007507,0.010803,-0.994446,0.175053,0.615573,-0.130992,45,270,584,6192
1644183033.786891,-0.007568,0.013184,-0.990601,0.190321,0.447634,-0.222595,47,277,586,6176
1644183033.831578,-0.007874,0.011475,-0.987915,0.144519,0.386565,-0.176794,48,279,583,6176
1644183033.92731,-0.008606,0.010681,-0.992065,0.281924,0.325496,-0.207328,45,280,582,6224
1644183033.975716,-0.007507,0.011475,-0.992493,0.205588,0.340763,-0.130992,48,271,583,6240
1644183034.024134,-0.013367,0.007996,-0.992981,0.129252,0.447634,-0.085191,52,270,593,6192
1644183034.072571,-0.010132,0.01123,-0.991028,0.266656,0.478168,-0.100458,49,275,579,6224
1644183034.120886,-0.006226,0.008362,-0.99231,0.312458,0.462901,-0.039389,43,276,580,6080
1644183034.169253,-0.008423,0.009155,-0.990784,0.037649,0.294962,-0.25313,43,288,576,6192
1644183034.21766,-0.009277,0.011108,-0.992554,0.159786,0.371298,0.006412,48,286,590,6256
1644183034.266033,-0.006775,0.00708,-0.990417,0.205588,0.447634,-0.192061,54,285,591,6160
1644183034.314442,-0.006897,0.011841,-0.992737,-0.008153,0.371298,-0.176794,45,265,586,6128
1644183034.362854,-0.010193,0.00885,-0.990662,0.175053,0.569771,-0.14626,58,279,580,6176
1644183034.411212,-0.008667,0.008606,-0.992981,0.236122,0.447634,-0.100458,49,263,586,6128
1644183034.459623,-0.005554,0.011292,-0.992065,0.205588,0.233893,-0.130992,49,273,582,6160
1644183034.507999,-0.011108,0.008179,-0.993103,0.205588,0.310229,-0.024122,49,287,589,6192
1644183034.556371,-0.010193,0.011475,-0.994202,0.190321,0.294962,-0.008855,55,281,578,6160
1644183034.604815,-0.006042,0.011414,-0.991455,0.144519,0.340763,-0.176794,45,273,591,6176
1644183034.653196,-0.007751,0.015137,-0.990723,0.312458,0.340763,-0.100458,51,274,583,6224
1644183034.701595,-0.010254,0.01123,-0.993652,0.220855,0.356031,-0.085191,43,274,590,6160
1644183034.750006,-0.007507,0.009949,-0.993774,0.190321,0.340763,-0.054656,40,277,582,6176
1644183034.798431,-0.009155,0.009949,-0.991516,0.098718,0.508702,-0.237863,54,268,584,6160
1644183034.847391,-0.007019,0.008545,-0.991577,0.068183,0.310229,0.067481,55,279,592,6224
1644183034.897806,-0.009216,0.010803,-0.990173,0.190321,0.432366,-0.008855,43,281,573,6192
1644183034.948483,-0.010254,0.012451,-0.992065,0.144519,0.340763,-0.222595,47,275,589,6112
1644183034.993511,-0.007385,0.009644,-0.990906,0.205588,0.371298,0.036947,47,265,584,6192
1644183035.088846,-0.007629,0.009155,-0.992004,0.327725,0.401832,0.006412,48,276,592,6240
1644183035.137121,-0.009094,0.013123,-0.992554,0.08345,0.539237,-0.024122,45,280,586,6192
1644183035.185488,-0.009216,0.011719,-0.991028,0.190321,0.432366,0.174351,46,281,585,6224
1644183035.233908,-0.007629,0.009094,-0.991211,0.236122,0.508702,0.006412,48,281,583,6160
1644183035.282383,-0.007935,0.00946,-0.992737,0.175053,0.447634,-0.100458,55,281,578,6240
1644183035.330674,-0.005981,0.009888,-0.993408,0.281924,0.417099,-0.192061,57,287,589,6192
1644183035.379086,-0.007996,0.01062,-0.991516,0.297191,0.493435,-0.161527,46,276,587,6176
1644183035.427465,-0.010071,0.010071,-0.990662,0.205588,0.310229,-0.130992,52,270,589,6080
1644183035.475865,-0.007935,0.010437,-0.991028,0.113985,0.417099,-0.237863,47,268,586,6192
1644183035.524261,-0.007507,0.009766,-0.993652,0.190321,0.401832,-0.14626,49,275,584,6224
1644183035.57267,-0.009033,0.013306,-0.992065,0.159786,0.417099,-0.14626,41,264,583,6176
1644183035.621063,-0.008057,0.009705,-0.992615,0.08345,0.340763,-0.069924,48,269,580,6224
1644183035.669454,-0.009033,0.007629,-0.990112,0.236122,0.386565,0.098015,40,270,591,6160
1644183035.717848,-0.008606,0.008362,-0.990417,0.159786,0.340763,-0.14626,45,275,584,6224
1644183035.766234,-0.009521,0.009216,-0.987244,0.388794,0.447634,-0.14626,36,279,587,6192
1644183035.814792,-0.006531,0.009216,-0.992676,0.236122,0.340763,-0.039389,52,268,589,6192
1644183035.86307,-0.009094,0.010742,-0.992371,0.251389,0.386565,-0.314198,65,279,583,6128
1644183035.911449,-0.008057,0.008667,-0.991943,0.113985,0.462901,-0.069924,53,266,597,6160
1644183035.959852,-0.008179,0.007935,-0.992371,0.205588,0.417099,-0.069924,43,274,592,6176
1644183036.067039,-0.007324,0.010559,-0.991638,0.129252,0.539237,-0.161527,55,271,592,6176
1644183036.107002,-0.008118,0.010193,-0.992126,0.129252,0.478168,-0.100458,42,280,596,6176
1644183036.153376,-0.008179,0.011169,-0.991333,0.190321,0.386565,-0.115725,49,273,577,6224
1644183036.201777,-0.008606,0.009338,-0.992188,0.205588,0.462901,-0.054656,46,271,590,6176
1644183036.250132,-0.009338,0.010376,-0.992004,0.144519,0.310229,-0.130992,51,274,585,6176
1644183036.298555,-0.010193,0.011597,-0.991943,0.159786,0.356031,-0.039389,51,274,583,6176
1644183036.346943,-0.01001,0.010071,-0.990906,0.190321,0.356031,0.036947,53,283,580,6224
1644183036.395343,-0.007751,0.011475,-0.99054,0.068183,0.371298,-0.176794,49,265,584,6224
1644183036.44373,-0.00885,0.012024,-0.990417,-0.008153,0.371298,-0.14626,45,282,577,6192
1644183036.492357,-0.009583,0.010498,-0.99054,0.175053,0.386565,-0.100458,42,280,586,6224
1644183036.540521,-0.003662,0.010254,-0.993713,0.251389,0.401832,-0.115725,52,285,589,6176
1644183036.588911,-0.009766,0.008423,-0.992554,0.08345,0.340763,-0.115725,48,276,590,6224
1644183036.637274,-0.004944,0.010498,-0.992432,0.205588,0.493435,-0.283664,53,276,585,6160
1644183036.685823,-0.008545,0.013672,-0.991943,0.159786,0.371298,-0.039389,42,277,586,6192
1644183036.734969,-0.009277,0.01062,-0.99115,0.220855,0.554504,-0.085191,52,280,579,6160
1644183036.785599,-0.007935,0.00946,-0.991272,0.266656,0.401832,0.021679,43,269,585,6176
1644183036.836234,-0.009583,0.010742,-0.991272,0.175053,0.386565,-0.039389,45,275,586,6224
1644183036.880769,-0.007507,0.009033,-0.993408,0.327725,0.386565,-0.039389,52,275,579,6192
1644183036.976063,-0.006653,0.009094,-0.990906,0.144519,0.386565,-0.207328,52,277,586,6224
1644183037.024459,-0.009033,0.011536,-0.990417,0.175053,0.325496,-0.25313,46,274,583,6176
1644183037.072918,-0.00946,0.007812,-0.994202,0.266656,0.508702,-0.054656,49,268,598,6176
1644183037.121255,-0.008789,0.007202,-0.987549,0.098718,0.356031,-0.024122,39,271,587,6192
1644183037.169619,-0.011719,0.007568,-0.99115,0.251389,0.447634,-0.024122,47,275,584,6224
1644183037.218019,-0.008667,0.008179,-0.991272,0.297191,0.279695,-0.054656,42,270,582,6224
1644183037.266402,-0.008606,0.00946,-0.993103,0.251389,0.554504,-0.100458,52,273,593,6240
1644183037.314793,-0.00946,0.006104,-0.993713,0.068183,0.432366,-0.207328,45,277,593,6176
1644183037.363205,-0.006531,0.009338,-0.991211,0.159786,0.401832,-0.008855,49,275,582,6176
1644183037.411586,-0.009521,0.007996,-0.991699,0.251389,0.401832,-0.115725,49,263,586,6128
1644183037.459971,-0.009155,0.008789,-0.993164,0.220855,0.325496,-0.024122,53,281,592,6224
1644183037.50837,-0.007996,0.008118,-0.991333,0.266656,0.279695,-0.14626,54,275,577,6224
1644183037.556768,-0.012878,0.009338,-0.993103,0.251389,0.462901,-0.100458,51,288,587,6224
1644183037.60525,-0.009949,0.008972,-0.989136,0.144519,0.371298,-0.069924,47,287,589,6192
1644183037.653565,-0.007324,0.010315,-0.994202,0.052916,0.432366,-0.176794,54,277,577,6240
1644183037.701923,-0.004822,0.010315,-0.98938,0.022382,0.356031,-0.161527,57,287,593,6224
1644183037.750312,-0.007507,0.008667,-0.991272,0.159786,0.432366,0.052214,46,291,587,6128
1644183037.79873,-0.006897,0.00647,-0.993347,0.129252,0.325496,0.036947,58,266,590,6240
1644183037.847162,-0.007141,0.011292,-0.990417,0.190321,0.386565,0.006412,57,280,582,6224
1644183037.896319,-0.007996,0.010742,-0.990723,0.266656,0.325496,0.113282,45,275,591,6224
1644183037.946803,-0.005676,0.010864,-0.990906,0.190321,0.462901,-0.085191,52,273,582,6192
1644183037.99696,-0.009399,0.009521,-0.991882,0.175053,0.401832,-0.085191,47,268,582,6176
1644183038.041456,-0.007019,0.010254,-0.992188,0.113985,0.386565,-0.130992,48,276,585,6128
1644183038.137516,-0.008423,0.011841,-0.993286,0.312458,0.401832,-0.14626,54,280,593,6224
1644183038.185859,-0.01123,0.008301,-0.991943,0.236122,0.279695,-0.085191,47,270,584,6192
1644183038.23429,-0.00769,0.012329,-0.990845,0.281924,0.264427,-0.268397,53,274,583,6176
1644183038.282666,-0.007874,0.010071,-0.989746,0.251389,0.340763,0.006412,53,283,578,6160
1644183038.331044,-0.008057,0.010071,-0.990295,0.342992,0.325496,-0.25313,48,279,578,6176
1644183038.379436,-0.009644,0.013062,-0.992432,0.266656,0.310229,0.021679,47,277,568,6224
1644183038.427833,-0.009766,0.011414,-0.990173,0.052916,0.447634,-0.115725,48,274,578,6240
1644183038.476219,-0.008789,0.008484,-0.989502,0.129252,0.371298,-0.115725,49,280,589,6176
1644183038.524647,-0.007263,0.009094,-0.989136,0.251389,0.294962,-0.085191,52,275,582,6192
1644183038.573032,-0.007874,0.010498,-0.988464,0.312458,0.462901,0.006412,51,271,580,6192
1644183038.621415,-0.005554,0.008606,-0.992676,0.113985,0.340763,-0.176794,41,271,576,6112
1644183038.669802,-0.009705,0.009155,-0.99353,0.35826,0.340763,-0.115725,48,269,580,6192
1644183038.71817,-0.010498,0.009521,-0.991821,0.281924,0.371298,-0.085191,53,279,594,6192
1644183038.76658,-0.010559,0.011169,-0.995056,0.281924,0.356031,-0.161527,54,275,579,6192
1644183038.815024,-0.007935,0.009827,-0.991943,0.175053,0.279695,-0.069924,53,286,585,6224
1644183038.863398,-0.008606,0.010864,-0.994141,0.175053,0.371298,-0.085191,54,275,577,6160
1644183038.911865,-0.011108,0.010742,-0.99231,0.220855,0.447634,-0.054656,58,279,580,6128
1644183038.961203,-0.010193,0.011719,-0.991638,0.144519,0.493435,-0.14626,52,279,578,6160
1644183039.008604,-0.008972,0.012085,-0.991577,0.266656,0.401832,-0.14626,47,253,586,6112
1644183039.093719,-0.012939,0.009583,-0.991455,0.144519,0.279695,-0.039389,51,274,585,6160
1644183039.153796,-0.008606,0.011475,-0.992554,0.098718,0.462901,-0.024122,45,275,579,6224
1644183039.202362,-0.007996,0.01001,-0.990662,0.236122,0.386565,-0.024122,46,276,576,6128
1644183039.250512,-0.006775,0.008728,-0.990173,0.266656,0.478168,-0.130992,34,276,580,6128
1644183039.298908,-0.007935,0.007935,-0.991943,0.068183,0.310229,0.052214,58,264,576,6160
1644183039.347289,-0.00769,0.011963,-0.991455,0.251389,0.417099,-0.024122,39,279,583,6192
1644183039.395676,-0.010986,0.012024,-0.988831,0.236122,0.264427,-0.039389,40,287,570,6192
1644183039.444086,-0.007874,0.010071,-0.990356,0.129252,0.523969,-0.237863,47,277,586,6176
1644183039.492501,-0.007874,0.008728,-0.98999,0.205588,0.401832,-0.008855,46,276,587,6176
1644183039.540887,-0.009216,0.007446,-0.992493,0.08345,0.478168,-0.115725,57,268,570,6192
1644183039.589242,-0.011902,0.007996,-0.993286,0.190321,0.462901,0.006412,47,280,582,6176
1644183039.637664,-0.007629,0.008911,-0.992065,0.129252,0.356031,-0.115725,40,282,577,6176
1644183039.686062,-0.00647,0.01062,-0.99231,0.205588,0.386565,-0.207328,54,277,579,6160
1644183039.73447,-0.00946,0.006836,-0.991211,0.052916,0.371298,-0.054656,52,280,584,6128
1644183039.782858,-0.010803,0.012451,-0.991333,0.220855,0.386565,-0.085191,39,266,578,6160
1644183039.83123,-0.008667,0.009277,-0.993347,0.098718,0.401832,-0.008855,55,269,592,6224
1644183039.879629,-0.007629,0.010498,-0.989075,0.327725,0.294962,0.006412,38,265,579,6224
1644183039.928044,-0.012085,0.008667,-0.991272,0.068183,0.401832,-0.008855,53,274,590,6224
1644183039.976528,-0.006714,0.009033,-0.991333,0.08345,0.585038,-0.069924,49,282,579,6304
1644183040.024851,-0.008911,0.009583,-0.996216,0.113985,0.508702,-0.176794,57,275,591,6112
1644183040.093846,-0.007385,0.014221,-0.992737,0.068183,0.371298,-0.192061,48,286,590,6160
1644183040.124705,-0.008728,0.01178,-0.991638,0.327725,0.478168,-0.222595,46,274,585,6192
1644183040.174806,-0.007996,0.011414,-0.990967,0.220855,0.508702,-0.100458,45,282,582,6128
1644183040.21939,-0.006348,0.012512,-0.991455,0.220855,0.447634,-0.192061,47,277,596,6160
1644183040.315411,-0.01062,0.009644,-0.990295,0.266656,0.523969,-0.008855,55,279,580,6128
1644183040.363578,-0.008057,0.011597,-0.990479,0.236122,0.386565,-0.25313,45,277,577,6240
1644183040.41198,-0.008362,0.010681,-0.993652,0.35826,0.478168,-0.085191,41,276,587,6176
1644183040.460374,-0.00769,0.012268,-0.990906,0.35826,0.462901,-0.100458,40,280,589,6192
1644183040.508764,-0.007874,0.013184,-0.992737,0.251389,0.279695,-0.176794,42,275,582,6192
1644183040.557162,-0.009705,0.00885,-0.992615,0.266656,0.478168,0.143817,59,277,584,6160
1644183040.60555,-0.005737,0.011353,-0.990601,0.098718,0.401832,-0.069924,48,271,585,6176
1644183040.653953,-0.006592,0.010315,-0.989075,0.190321,0.493435,-0.069924,47,275,582,6192
1644183040.702359,-0.008423,0.009949,-0.991333,0.312458,0.371298,-0.054656,55,288,580,6240
1644183040.750754,-0.008789,0.008667,-0.991272,0.08345,0.325496,0.006412,49,280,579,6240
1644183040.799096,-0.00885,0.009949,-0.989258,0.342992,0.478168,-0.008855,46,291,578,6160
1644183040.847521,-0.008118,0.012695,-0.990784,0.113985,0.493435,-0.100458,47,280,589,6240
1644183040.895927,-0.008301,0.012085,-0.990051,0.251389,0.417099,-0.085191,43,271,585,6224
1644183040.944321,-0.009521,0.010803,-0.991821,0.113985,0.371298,-0.008855,60,274,592,6176
1644183040.99271,-0.006714,0.009766,-0.992676,0.312458,0.340763,-0.14626,51,274,583,6176
1644183041.041113,-0.007812,0.012878,-0.990906,0.327725,0.539237,-0.069924,53,262,592,6224
1644183041.090684,-0.009827,0.008179,-0.991394,0.281924,0.386565,-0.222595,58,286,580,6160
1644183041.137849,-0.00592,0.011047,-0.992493,0.327725,0.432366,-0.25313,49,280,586,6224
1644183041.186228,-0.009583,0.010071,-0.990723,0.190321,0.478168,0.006412,49,275,591,6176
1644183041.235004,-0.007812,0.011169,-0.99353,0.236122,0.447634,-0.130992,53,269,585,6176
1644183041.285787,-0.005859,0.009155,-0.991394,0.113985,0.493435,0.082748,52,277,589,6224
1644183041.335645,-0.009277,0.009094,-0.991699,0.434595,0.401832,-0.14626,59,268,596,6160
1644183041.380762,-0.009827,0.008667,-0.991333,0.297191,0.340763,-0.100458,54,280,575,6192
1644183041.47657,-0.00824,0.011536,-0.991699,0.175053,0.24916,0.036947,46,276,578,6192
1644183041.525228,-0.010864,0.00885,-0.988525,0.220855,0.493435,-0.024122,53,266,578,6128
1644183041.573382,-0.009644,0.010742,-0.990417,0.220855,0.340763,-0.14626,41,271,580,6224
1644183041.621757,-0.010071,0.010254,-0.991516,0.052916,0.294962,-0.100458,43,279,580,6240
1644183041.670167,-0.008057,0.010681,-0.991516,0.129252,0.432366,0.052214,48,271,578,6192
1644183041.718541,-0.010681,0.008118,-0.990967,0.220855,0.371298,-0.008855,52,282,589,6240
1644183041.766943,-0.008606,0.007935,-0.99115,0.175053,0.264427,-0.039389,34,279,587,6176
1644183041.815373,-0.010559,0.007507,-0.990417,0.205588,0.508702,-0.039389,52,282,589,6192
1644183041.863782,-0.008606,0.010681,-0.990662,0.098718,0.569771,-0.161527,54,273,579,6192
1644183041.912391,-0.010193,0.009094,-0.992676,0.251389,0.493435,-0.069924,58,279,583,6224
1644183041.960562,-0.004883,0.009216,-0.992798,0.297191,0.356031,-0.100458,51,276,594,6224
1644183042.008921,-0.009766,0.010559,-0.990234,0.327725,0.432366,0.021679,49,275,586,6192
1644183042.069682,-0.006714,0.009583,-0.992737,0.220855,0.432366,-0.192061,51,283,583,6176
1644183042.106761,-0.008911,0.01062,-0.992981,0.190321,0.386565,-0.039389,43,274,587,6192
1644183042.154129,-0.006531,0.011902,-0.990967,0.251389,0.233893,-0.024122,57,277,584,6176
1644183042.202494,-0.008301,0.008057,-0.991272,0.312458,0.478168,-0.024122,52,280,577,6224
1644183042.250858,-0.009827,0.013306,-0.98877,0.236122,0.386565,-0.024122,52,270,593,6128
1644183042.299255,-0.007751,0.009705,-0.990784,0.220855,0.325496,-0.130992,57,273,589,6176
1644183042.347653,-0.007507,0.011658,-0.991638,0.175053,0.356031,-0.176794,45,275,586,6176
1644183042.396477,-0.008362,0.009949,-0.989868,0.159786,0.417099,-0.054656,55,286,583,6192
1644183042.446994,-0.010132,0.009155,-0.993347,0.388794,0.432366,0.052214,51,279,592,6176
1644183042.497571,-0.01001,0.012329,-0.991882,0.144519,0.356031,-0.085191,48,276,587,6176
1644183042.542174,-0.008667,0.009155,-0.991333,0.113985,0.417099,-0.14626,47,270,584,6240
1644183042.637995,-0.008972,0.011108,-0.990906,0.297191,0.523969,-0.085191,48,286,578,6160
1644183042.68642,-0.009094,0.009094,-0.990112,0.220855,0.569771,-0.085191,49,280,591,6160
1644183042.734853,-0.005737,0.009583,-0.989258,0.144519,0.569771,-0.039389,52,273,586,6224
1644183042.783197,-0.008179,0.008972,-0.991943,0.175053,0.294962,-0.100458,54,285,586,6192
1644183042.831619,-0.010071,0.008362,-0.990662,0.220855,0.386565,-0.054656,47,280,579,6160
1644183042.880013,-0.009094,0.010315,-0.993469,0.129252,0.356031,-0.085191,51,274,590,6176
1644183042.928404,-0.01001,0.008728,-0.990417,0.342992,0.340763,-0.085191,52,280,589,6192
1644183042.976799,-0.007019,0.010498,-0.994324,0.35826,0.218626,-0.100458,47,258,589,6160
1644183043.025223,-0.008789,0.009094,-0.991821,0.373527,0.447634,-0.222595,46,283,590,6160
1644183043.077703,-0.008362,0.010925,-0.99115,0.144519,0.508702,-0.069924,47,285,582,6288
1644183043.121933,-0.008728,0.00708,-0.991028,0.098718,0.24916,-0.039389,46,281,578,6240
1644183043.170312,-0.009583,0.011292,-0.992249,0.037649,0.493435,-0.14626,47,282,575,6112
1644183043.21873,-0.008484,0.01001,-0.992371,0.236122,0.432366,-0.14626,53,274,585,6176
1644183043.26712,-0.007568,0.007324,-0.990479,0.144519,0.356031,-0.100458,55,283,585,6128
1644183043.315512,-0.009033,0.010132,-0.991699,0.510931,0.462901,-0.100458,58,276,592,6224
1644183043.363914,-0.007202,0.00824,-0.992493,0.312458,0.356031,-0.176794,48,276,590,6224
1644183043.412316,-0.005981,0.011719,-0.992615,0.205588,0.432366,-0.115725,43,279,583,6128
1644183043.460697,-0.007019,0.008728,-0.990601,0.236122,0.279695,-0.130992,52,287,589,6160
1644183043.509079,-0.009888,0.009644,-0.992798,0.236122,0.447634,-0.176794,49,282,589,6176
1644183043.557793,-0.007385,0.012207,-0.99115,0.266656,0.325496,-0.176794,48,283,573,6192
1644183043.608449,-0.008789,0.008911,-0.992798,0.190321,0.523969,-0.024122,43,281,592,6192
1644183043.658491,-0.010437,0.009644,-0.991516,0.098718,0.356031,-0.222595,52,277,584,6176
1644183043.703498,-0.010925,0.009644,-0.990173,0.190321,0.432366,-0.039389,58,269,578,6176
1644183043.799419,-0.011475,0.010864,-0.991943,0.205588,0.493435,-0.161527,46,274,583,6240
1644183043.847876,-0.010803,0.008423,-0.993347,0.236122,0.401832,-0.176794,53,269,592,6176
1644183043.896257,-0.00824,0.009827,-0.993103,0.098718,0.371298,-0.069924,52,270,589,6160
1644183043.94466,-0.009521,0.010742,-0.990967,0.236122,0.401832,-0.14626,49,280,579,6176
1644183043.993049,-0.011475,0.010132,-0.99292,0.220855,0.508702,-0.008855,42,275,577,6224
1644183044.041443,-0.008667,0.009827,-0.991089,0.266656,0.539237,0.067481,46,281,585,6192
1644183044.093951,-0.004944,0.010193,-0.991638,0.388794,0.447634,-0.054656,46,269,587,6224
1644183044.138194,-0.005676,0.008362,-0.992065,0.144519,0.508702,-0.115725,52,285,586,6160
1644183044.186586,-0.00647,0.010559,-0.989319,0.297191,0.432366,-0.008855,52,275,591,6224
1644183044.235102,-0.009399,0.007568,-0.991272,0.098718,0.447634,-0.161527,58,279,587,6160
1644183044.283371,-0.008179,0.009827,-0.993958,0.342992,0.432366,-0.024122,46,279,580,6224
1644183044.331766,-0.007996,0.009949,-0.990967,0.281924,0.340763,-0.054656,60,269,576,6192
1644183044.380155,-0.010071,0.010986,-0.990845,0.129252,0.371298,0.036947,59,277,584,6192
1644183044.428519,-0.007629,0.007446,-0.991882,0.205588,0.279695,-0.130992,51,281,587,6192
1644183044.476924,-0.008179,0.008972,-0.989929,0.404061,0.371298,0.006412,54,280,579,6224
1644183044.525339,-0.009766,0.009094,-0.989197,0.236122,0.462901,-0.14626,53,283,583,6240
1644183044.573731,-0.007751,0.010803,-0.990967,0.220855,0.462901,-0.008855,46,266,590,6224
1644183044.622456,-0.009033,0.010864,-0.992859,0.281924,0.508702,-0.039389,39,269,587,6192
1644183044.671352,-0.007996,0.010681,-0.993286,0.297191,0.386565,-0.100458,42,273,584,6224
1644183044.722351,-0.00824,0.006958,-0.991638,0.113985,0.447634,-0.130992,38,285,586,6160
1644183044.771915,-0.010071,0.010376,-0.992981,0.159786,0.356031,-0.130992,53,276,583,6224
1644183044.817066,-0.010681,0.010864,-0.991455,0.190321,0.310229,-0.130992,54,273,591,6160
1644183044.912523,-0.007874,0.01001,-0.991821,0.35826,0.310229,-0.207328,51,281,573,6176
1644183044.960876,-0.007568,0.009827,-0.99115,0.175053,0.310229,0.12855,49,268,575,6176
1644183045.009286,-0.011108,0.008728,-0.989136,0.144519,0.264427,0.067481,49,277,579,6192
1644183045.065087,-0.010864,0.007996,-0.991333,0.052916,0.417099,-0.130992,51,281,587,6176
1644183045.107626,-0.005127,0.009705,-0.992554,0.205588,0.340763,0.006412,46,286,587,6224
1644183045.154449,-0.009094,0.011353,-0.991577,0.098718,0.325496,-0.069924,54,273,596,6176
1644183045.202843,-0.009155,0.009583,-0.993408,0.052916,0.447634,-0.069924,54,280,589,6224
1644183045.251202,-0.008179,0.012024,-0.98877,0.327725,0.417099,-0.222595,53,283,580,6224
1644183045.299617,-0.009155,0.008362,-0.989929,0.144519,0.447634,0.006412,47,275,582,6224
1644183045.348017,-0.007263,0.006592,-0.991943,0.281924,0.386565,-0.100458,51,288,587,6160
1644183045.396409,-0.01001,0.009644,-0.991821,0.281924,0.356031,-0.054656,52,285,593,6256
1644183045.444827,-0.009583,0.007935,-0.990967,0.312458,0.279695,-0.130992,45,273,572,6128
1644183045.493184,-0.006104,0.009888,-0.991943,0.144519,0.432366,-0.039389,48,274,576,6192
1644183045.541593,-0.007019,0.012207,-0.991333,0.159786,0.508702,-0.039389,52,275,582,6240
1644183045.589976,-0.00824,0.01178,-0.991028,0.068183,0.356031,-0.130992,47,268,575,6160
1644183045.638348,-0.008972,0.010559,-0.990295,0.175053,0.401832,0.006412,53,274,592,6240
1644183045.686735,-0.008484,0.007935,-0.993652,0.144519,0.447634,-0.115725,46,286,585,6224
1644183045.735184,-0.004578,0.010193,-0.992371,0.159786,0.386565,0.067481,53,271,580,6128
1644183045.783567,-0.008057,0.013184,-0.992493,0.220855,0.447634,0.036947,52,270,584,6160
1644183045.833436,-0.007812,0.010376,-0.990479,0.205588,0.417099,-0.130992,54,280,577,6128
1644183045.884472,-0.006042,0.010681,-0.989624,0.175053,0.585038,-0.14626,45,277,584,6176
1644183045.929074,-0.007935,0.01178,-0.988647,0.159786,0.432366,-0.039389,53,274,587,6128
1644183046.025566,-0.006348,0.009827,-0.990356,0.251389,0.386565,-0.237863,45,282,582,6224
1644183046.074014,-0.006104,0.01178,-0.989563,0.281924,0.432366,0.021679,61,277,589,6192
1644183046.122289,-0.005798,0.010071,-0.993896,0.175053,0.447634,0.082748,48,274,585,6256
1644183046.170685,-0.009521,0.008911,-0.993652,0.175053,0.462901,-0.024122,51,269,583,6224
1644183046.219066,-0.009888,0.013367,-0.990967,0.373527,0.523969,0.021679,42,265,582,6224
1644183046.267472,-0.007874,0.008057,-0.989929,0.220855,0.264427,-0.115725,51,274,583,6192
1644183046.315843,-0.008911,0.010254,-0.98877,0.266656,0.523969,-0.298931,48,291,580,6176
1644183046.364269,-0.008728,0.007568,-0.991333,0.098718,0.554504,-0.14626,49,265,582,6224
1644183046.412684,-0.00946,0.011108,-0.988953,0.220855,0.371298,0.036947,40,275,579,6224
1644183046.461052,-0.006409,0.010437,-0.993958,0.190321,0.386565,0.036947,49,275,591,6160
1644183046.509421,-0.008118,0.009033,-0.992737,0.297191,0.401832,-0.130992,62,279,592,6192
1644183046.557833,-0.00885,0.008301,-0.991577,0.144519,0.447634,0.113282,48,288,583,6176
1644183046.60623,-0.00824,0.008118,-0.994141,0.129252,0.447634,-0.161527,46,283,587,6176
1644183046.65472,-0.009766,0.010254,-0.988342,0.220855,0.310229,-0.36,39,283,576,6192
1644183046.703025,-0.007751,0.009094,-0.993835,0.159786,0.264427,-0.039389,49,280,582,6160
1644183046.751371,-0.012085,0.009521,-0.991699,0.098718,0.371298,-0.192061,45,275,582,6176
1644183046.799806,-0.011902,0.011108,-0.991577,0.236122,0.417099,-0.008855,47,270,582,6240
1644183046.848234,-0.008911,0.01001,-0.992188,0.129252,0.417099,-0.069924,46,271,587,6224
1644183046.896638,-0.008301,0.010254,-0.993408,0.236122,0.417099,-0.085191,48,271,580,6128
1644183046.946371,-0.008606,0.008057,-0.990906,0.175053,0.569771,-0.115725,48,269,583,6192
1644183046.996445,-0.01062,0.009338,-0.992249,0.068183,0.478168,-0.130992,48,274,583,6224
1644183047.061296,-0.010132,0.007385,-0.993103,0.312458,0.539237,-0.085191,43,281,585,6176
1644183047.098484,-0.008484,0.011841,-0.99115,0.251389,0.447634,0.006412,53,262,590,6224
1644183047.186925,-0.011475,0.010132,-0.992493,0.175053,0.294962,-0.115725,45,265,586,6128
1644183047.235383,-0.009949,0.009216,-0.988953,0.373527,0.401832,-0.069924,49,275,579,6176
1644183047.283726,-0.009705,0.008667,-0.99176,0.205588,0.386565,-0.069924,52,277,584,6176
1644183047.332352,-0.007324,0.008057,-0.989685,0.159786,0.340763,-0.039389,48,271,587,6192
1644183047.380502,-0.010071,0.007202,-0.993286,0.297191,0.401832,0.036947,49,282,591,6224
1644183047.428902,-0.005859,0.010803,-0.991089,0.220855,0.478168,-0.054656,51,274,585,6192
1644183047.4773,-0.009949,0.008545,-0.99115,0.220855,0.523969,-0.024122,48,276,578,6192
1644183047.525689,-0.005981,0.010071,-0.993225,0.190321,0.340763,-0.161527,51,276,590,6224
1644183047.574071,-0.008423,0.009338,-0.99292,0.159786,0.340763,-0.100458,43,274,580,6224
1644183047.622492,-0.005371,0.009827,-0.990356,0.220855,0.417099,-0.115725,42,273,575,6176
1644183047.670842,-0.008972,0.008362,-0.990173,0.236122,0.310229,-0.100458,52,277,570,6224
1644183047.719258,-0.007385,0.010803,-0.991638,0.175053,0.371298,-0.100458,42,282,577,6224
1644183047.76766,-0.008484,0.009949,-0.99176,0.08345,0.401832,-0.069924,57,277,579,6192
1644183047.816051,-0.009705,0.008789,-0.992004,0.236122,0.371298,-0.14626,45,277,582,6192
1644183047.8645,-0.007568,0.009094,-0.991699,0.052916,0.493435,-0.039389,49,280,591,6224
1644183047.912894,-0.010864,0.010193,-0.992676,0.144519,0.462901,-0.130992,49,273,582,6160
1644183047.96127,-0.010986,0.01062,-0.991882,0.068183,0.294962,-0.069924,43,286,580,6160
1644183048.009657,-0.007446,0.007751,-0.99115,0.190321,0.218626,-0.207328,54,282,586,6224
1644183048.074969,-0.009399,0.011047,-0.993408,0.190321,0.462901,-0.115725,46,274,585,6192
1644183048.112581,-0.00592,0.012268,-0.990601,0.175053,0.508702,-0.039389,48,274,597,6176
1644183048.157631,-0.007568,0.007568,-0.992249,0.098718,0.233893,-0.024122,59,275,579,6240
1644183048.20672,-0.009338,0.010498,-0.989807,0.312458,0.294962,-0.161527,47,280,579,6192
1644183048.256901,-0.006592,0.010986,-0.993164,0.35826,0.432366,-0.161527,42,277,593,6128
1644183048.348361,-0.008057,0.011414,-0.99176,0.159786,0.386565,0.021679,46,262,583,6128
1644183048.396747,-0.006653,0.010376,-0.990967,0.281924,0.386565,0.036947,41,276,592,6224
1644183048.445374,-0.007751,0.009033,-0.991455,0.236122,0.310229,-0.085191,49,277,584,6176
1644183048.493542,-0.009521,0.011536,-0.992676,0.281924,0.279695,-0.085191,51,286,571,6160
1644183048.541935,-0.01178,0.010986,-0.991882,0.312458,0.356031,-0.054656,52,280,577,6224
1644183048.590333,-0.008789,0.010986,-0.992493,0.129252,0.508702,-0.237863,49,287,579,6176
1644183048.638718,-0.010254,0.007385,-0.991699,0.35826,0.447634,0.036947,43,266,573,6176
1644183048.687116,-0.007446,0.009705,-0.991394,0.113985,0.386565,-0.069924,47,273,582,6176
1644183048.735509,-0.007996,0.011963,-0.991882,0.251389,0.386565,-0.100458,43,276,578,6176
1644183048.783903,-0.007996,0.011108,-0.993835,0.205588,0.432366,-0.207328,47,287,582,6176
1644183048.832323,-0.00946,0.011902,-0.993652,0.251389,0.279695,-0.069924,49,285,584,6176
1644183048.880742,-0.009277,0.009033,-0.993469,0.144519,0.447634,-0.222595,52,282,596,6256
1644183048.929127,-0.010193,0.010254,-0.992249,0.35826,0.24916,-0.14626,41,286,594,6176
1644183048.977524,-0.010986,0.006775,-0.991394,0.159786,0.493435,0.021679,45,275,582,6176
1644183049.025917,-0.008118,0.010742,-0.992554,0.190321,0.432366,-0.054656,53,281,587,6224
1644183049.088268,-0.010681,0.008545,-0.989868,0.190321,0.356031,0.021679,45,268,596,6192
1644183049.123622,-0.011047,0.011169,-0.990662,0.266656,0.493435,0.006412,60,279,580,6192
1644183049.173764,-0.009338,0.008911,-0.991516,0.113985,0.325496,-0.039389,38,277,579,6240
1644183049.22323,-0.011719,0.009399,-0.992554,0.236122,0.371298,-0.283664,40,280,593,6160
1644183049.268003,-0.007019,0.007935,-0.990112,0.159786,0.24916,-0.085191,47,273,586,6240
1644183049.364886,-0.009827,0.010864,-0.990601,0.159786,0.294962,-0.054656,52,268,586,6176
1644183049.413032,-0.006165,0.00946,-0.989807,0.190321,0.432366,-0.054656,54,275,591,6240
1644183049.461403,-0.009766,0.008972,-0.992981,0.159786,0.447634,-0.069924,49,282,591,6240
1644183049.509799,-0.011597,0.008057,-0.992798,0.159786,0.447634,-0.054656,39,269,590,6176
1644183049.558178,-0.009277,0.01062,-0.993286,0.098718,0.386565,-0.161527,49,280,582,6240
1644183049.60658,-0.007568,0.009521,-0.990967,0.068183,0.386565,-0.039389,47,273,582,6112
1644183049.655015,-0.007446,0.009216,-0.991028,0.297191,0.447634,-0.192061,57,275,582,6240
1644183049.703393,-0.009033,0.008728,-0.995178,0.129252,0.401832,-0.14626,42,282,579,6160
1644183049.751743,-0.009521,0.010986,-0.990112,0.205588,0.356031,-0.085191,47,280,572,6224
1644183049.800174,-0.009399,0.010559,-0.991943,0.251389,0.340763,-0.008855,40,282,575,6192
1644183049.84855,-0.007751,0.008606,-0.992188,0.35826,0.447634,-0.100458,48,271,576,6224
1644183049.896978,-0.008118,0.009033,-0.993774,0.220855,0.310229,-0.069924,39,276,576,6160
1644183049.945369,-0.005432,0.011047,-0.990112,0.129252,0.310229,-0.176794,43,281,587,6192
1644183049.993774,-0.006836,0.009216,-0.98822,0.251389,0.386565,-0.115725,42,270,586,6240
1644183050.042174,-0.009949,0.011841,-0.991699,0.144519,0.340763,0.036947,46,279,583,6160
1644183050.091663,-0.010925,0.011047,-0.990967,0.144519,0.371298,-0.161527,49,277,584,6112
1644183050.138913,-0.012451,0.009583,-0.992371,0.251389,0.401832,-0.008855,47,270,586,6224
1644183050.187292,-0.010681,0.013855,-0.992554,0.144519,0.447634,0.006412,51,269,587,6192
1644183050.235669,-0.009155,0.008057,-0.990295,0.327725,0.371298,-0.161527,49,273,577,6224
1644183050.28412,-0.008789,0.011475,-0.991882,0.190321,0.539237,-0.054656,57,268,593,6240
1644183050.334564,-0.009033,0.011414,-0.992554,0.251389,0.401832,-0.207328,53,276,590,6240
1644183050.384992,-0.007751,0.012146,-0.991028,0.220855,0.432366,0.006412,49,277,591,6128
1644183050.429931,-0.00885,0.008789,-0.991089,0.144519,0.371298,-0.14626,45,275,582,6224
1644183050.52603,-0.008789,0.007019,-0.993774,0.175053,0.356031,-0.14626,47,275,591,6176
1644183050.574445,-0.00824,0.010498,-0.993774,0.144519,0.386565,-0.024122,41,281,590,6112
1644183050.62287,-0.00824,0.007568,-0.992554,0.266656,0.325496,-0.085191,45,270,584,6176
1644183050.671221,-0.007263,0.009705,-0.99176,0.113985,0.447634,-0.085191,59,280,577,6224
1644183050.719633,-0.007385,0.010071,-0.993103,0.129252,0.279695,0.098015,48,266,583,6224
1644183050.768008,-0.009033,0.010742,-0.991028,0.159786,0.478168,-0.008855,34,264,592,6176
1644183050.816453,-0.009338,0.007568,-0.994019,0.205588,0.585038,-0.085191,49,273,586,6176
1644183050.864852,-0.010986,0.011353,-0.988342,0.159786,0.493435,-0.100458,51,279,587,6224
1644183050.913254,-0.007385,0.011536,-0.992432,0.144519,0.325496,-0.024122,59,280,577,6176
1644183050.961615,-0.01123,0.008789,-0.992249,0.236122,0.417099,-0.176794,41,271,585,6160
1644183051.010009,-0.008362,0.011597,-0.992371,0.281924,0.371298,-0.069924,49,285,591,6176
1644183051.063893,-0.01416,0.009827,-0.991699,0.220855,0.508702,-0.14626,53,269,597,6224
1644183051.106723,-0.006897,0.011292,-0.991455,0.144519,0.310229,-0.192061,49,270,589,6192
1644183051.155233,-0.009583,0.009644,-0.994324,0.144519,0.462901,-0.192061,45,280,589,6192
1644183051.203531,-0.009644,0.009033,-0.991577,0.190321,0.417099,-0.069924,42,280,582,6240
1644183051.251918,-0.010376,0.010193,-0.991638,0.220855,0.432366,-0.192061,57,275,584,6160
1644183051.300331,-0.010193,0.010559,-0.989807,0.251389,0.294962,-0.176794,42,275,593,6224
1644183051.348698,-0.007629,0.012329,-0.992981,0.205588,0.356031,-0.085191,48,274,576,6192
1644183051.397114,-0.00647,0.00946,-0.991943,0.251389,0.401832,-0.024122,45,265,586,6176
1644183051.445527,-0.009033,0.008911,-0.991333,0.327725,0.523969,-0.085191,55,283,590,6192
1644183051.496172,-0.009277,0.009277,-0.990356,0.312458,0.401832,-0.130992,48,279,585,6224
1644183051.54608,-0.008972,0.009338,-0.990295,0.144519,0.386565,-0.100458,40,273,572,6160
1644183051.591093,-0.006714,0.012207,-0.99176,0.373527,0.539237,-0.375267,55,269,585,6192
1644183051.687456,-0.006836,0.011169,-0.992798,0.129252,0.386565,-0.237863,58,274,583,6192
1644183051.735854,-0.009705,0.008972,-0.993774,0.266656,0.478168,-0.14626,49,290,577,6192
1644183051.784246,-0.01178,0.009766,-0.993713,0.175053,0.310229,-0.130992,45,268,575,6160
1644183051.832713,-0.007874,0.00824,-0.989197,0.144519,0.508702,-0.054656,45,277,582,6176
1644183051.881084,-0.009216,0.010315,-0.992188,0.175053,0.539237,-0.069924,46,276,587,6224
1644183051.929492,-0.00824,0.009155,-0.993164,0.190321,0.432366,-0.115725,51,262,597,6224
1644183051.977854,-0.009644,0.009583,-0.992249,0.342992,0.447634,-0.161527,40,273,579,6192
1644183052.026265,-0.008118,0.008545,-0.991028,0.175053,0.325496,-0.14626,54,265,593,6160
1644183052.084854,-0.008118,0.008118,-0.992126,0.266656,0.340763,-0.14626,49,275,577,6192
1644183052.123051,-0.009521,0.011414,-0.988403,0.312458,0.325496,-0.161527,57,280,577,6224
1644183052.171404,-0.008423,0.010071,-0.990295,0.297191,0.264427,0.082748,51,279,587,6176
1644183052.21981,-0.008484,0.010071,-0.992859,0.175053,0.585038,-0.100458,55,283,594,6176
1644183052.268168,-0.009827,0.00946,-0.991943,0.297191,0.508702,0.006412,47,260,579,6128
1644183052.316556,-0.009155,0.008057,-0.995483,0.236122,0.432366,-0.192061,45,277,596,6176
1644183052.365022,-0.007263,0.011047,-0.98877,0.113985,0.279695,-0.069924,48,269,592,6240
1644183052.413378,-0.008484,0.008301,-0.992371,0.205588,0.294962,-0.130992,46,288,578,6176
1644183052.461779,-0.008911,0.008545,-0.990479,0.129252,0.371298,-0.14626,51,276,585,6176
1644183052.510186,-0.009338,0.010437,-0.993469,0.297191,0.447634,-0.054656,55,279,587,6192
1644183052.560629,-0.010681,0.011963,-0.990967,0.190321,0.356031,-0.161527,53,274,571,6160
1644183052.610693,-0.006958,0.013367,-0.992859,0.190321,0.417099,-0.085191,48,279,579,6224
1644183052.655916,-0.011414,0.011108,-0.99231,0.159786,0.462901,-0.25313,43,274,576,6128
1644183052.752372,-0.006592,0.008057,-0.991211,0.297191,0.340763,0.021679,49,280,596,6176
1644183052.8005,-0.009521,0.008057,-0.993164,0.266656,0.356031,-0.14626,45,277,584,6240
1644183052.848935,-0.00769,0.013306,-0.993042,0.129252,0.172824,-0.039389,52,277,591,6176
1644183052.897337,-0.006226,0.006592,-0.991882,0.297191,0.478168,-0.039389,39,276,592,6112
1644183052.945732,-0.00885,0.009277,-0.989319,0.08345,0.417099,-0.207328,49,280,582,6176
1644183052.994123,-0.007019,0.007996,-0.991394,0.175053,0.417099,-0.115725,58,271,594,6176
1644183053.042521,-0.010193,0.012451,-0.989746,0.175053,0.432366,-0.054656,41,279,578,6224
1644183053.090981,-0.008545,0.007935,-0.989807,0.159786,0.294962,-0.222595,49,275,591,6176
1644183053.139243,-0.008301,0.006775,-0.994446,0.434595,0.356031,-0.039389,40,285,586,6112
1644183053.187658,-0.00946,0.009399,-0.993652,0.312458,0.417099,-0.192061,52,273,586,6192
1644183053.236025,-0.009705,0.007507,-0.992859,0.266656,0.340763,0.006412,52,282,579,6192
1644183053.284426,-0.013428,0.010681,-0.990417,0.175053,0.539237,-0.115725,43,279,585,6176
1644183053.332854,-0.010315,0.007812,-0.993408,0.175053,0.478168,-0.130992,46,279,592,6128
1644183053.381236,-0.009705,0.009277,-0.992737,0.205588,0.401832,-0.115725,52,282,582,6240
1644183053.429626,-0.007446,0.00824,-0.99292,0.175053,0.417099,-0.237863,49,275,586,6192
1644183053.478002,-0.009277,0.010315,-0.990295,0.144519,0.417099,-0.115725,46,276,585,6192
1644183053.526876,-0.008911,0.011597,-0.989807,0.175053,0.340763,-0.054656,51,281,569,6176
1644183053.575881,-0.011047,0.010254,-0.991516,0.190321,0.447634,-0.100458,54,277,591,6224
1644183053.626442,-0.01178,0.011292,-0.990234,0.129252,0.218626,0.006412,51,279,578,6224
1644183053.676611,-0.005981,0.008667,-0.991699,0.266656,0.279695,-0.176794,49,270,586,6128
1644183053.768387,-0.007874,0.008423,-0.990173,0.220855,0.462901,-0.039389,53,266,592,6160
1644183053.816739,-0.008484,0.01178,-0.991577,0.251389,0.432366,0.098015,57,275,579,6224
1644183053.865228,-0.008972,0.01062,-0.994263,0.297191,0.523969,-0.115725,49,270,589,6112
1644183053.913594,-0.008667,0.009033,-0.992859,0.251389,0.401832,-0.100458,55,286,585,6160
1644183053.961977,-0.006836,0.010315,-0.991272,0.220855,0.432366,-0.192061,42,292,589,6240
1644183054.010369,-0.009094,0.01001,-0.991638,0.098718,0.417099,-0.14626,52,280,577,6128
1644183054.067431,-0.00885,0.010803,-0.991638,0.220855,0.523969,-0.039389,43,281,583,6224
1644183054.108071,-0.00824,0.006958,-0.994202,0.129252,0.493435,-0.024122,48,269,592,6128
1644183054.155486,-0.008911,0.011047,-0.991882,0.35826,0.447634,0.021679,54,273,582,6224
1644183054.203924,-0.007141,0.010132,-0.992065,0.098718,0.432366,0.098015,48,281,580,6240
1644183054.252315,-0.00708,0.010803,-0.993652,0.327725,0.508702,-0.130992,57,280,589,6192
1644183054.300657,-0.007812,0.011169,-0.992432,0.159786,0.340763,-0.130992,42,273,584,6128
1644183054.349086,-0.010498,0.008789,-0.993042,0.205588,0.462901,-0.207328,57,280,584,6224
1644183054.397442,-0.008301,0.00885,-0.992554,0.342992,0.386565,-0.161527,51,271,587,6176
1644183054.445872,-0.007141,0.009399,-0.991882,0.007115,0.447634,0.006412,48,264,590,6176
1644183054.494257,-0.008545,0.008606,-0.99054,0.08345,0.447634,-0.115725,43,276,590,6176
1644183054.54288,-0.011353,0.01001,-0.993713,0.251389,0.432366,0.098015,53,286,587,6224
1644183054.591753,-0.007568,0.008545,-0.992859,0.144519,0.371298,-0.039389,51,279,587,6128
1644183054.642265,-0.004211,0.011719,-0.990906,0.297191,0.371298,-0.192061,57,275,582,6176
1644183054.692371,-0.007629,0.009094,-0.992615,0.205588,0.401832,-0.14626,46,276,585,6240
1644183054.737393,-0.008911,0.010193,-0.994263,0.220855,0.325496,-0.085191,53,279,590,6224
1644183054.833043,-0.006958,0.010742,-0.990112,0.190321,0.432366,-0.115725,52,277,575,6240
1644183054.881444,-0.010437,0.008789,-0.990356,0.404061,0.264427,0.006412,60,271,585,6128
1644183054.929803,-0.006653,0.010376,-0.991394,0.190321,0.401832,0.067481,52,275,591,6160
1644183054.978226,-0.009827,0.010498,-0.988281,0.236122,0.493435,-0.100458,51,279,578,6112
1644183055.028316,-0.009399,0.010193,-0.991821,0.312458,0.371298,-0.176794,46,286,585,6176
1644183055.075181,-0.006775,0.008423,-0.991821,0.281924,0.554504,-0.25313,54,285,593,6160
1644183055.12341,-0.008362,0.010132,-0.993225,0.266656,0.310229,-0.161527,49,277,584,6224
1644183055.171778,-0.007019,0.011047,-0.98999,0.129252,0.462901,-0.192061,48,262,580,6224
1644183055.220158,-0.010254,0.012512,-0.991089,0.098718,0.462901,-0.069924,42,277,589,6240
1644183055.26852,-0.009705,0.008606,-0.992004,0.236122,0.478168,-0.176794,57,273,579,6112
1644183055.316912,-0.009888,0.011169,-0.989075,0.220855,0.340763,-0.054656,46,279,580,6176
1644183055.36533,-0.005859,0.010559,-0.992859,0.35826,0.401832,-0.130992,48,269,580,6192
1644183055.413742,-0.009949,0.008362,-0.992126,0.434595,0.279695,0.021679,53,276,580,6160
1644183055.462215,-0.008362,0.012268,-0.990967,0.113985,0.432366,-0.222595,45,285,586,6224
1644183055.510484,-0.00592,0.012207,-0.993164,0.220855,0.371298,0.021679,43,281,597,6176
1644183055.558869,-0.005615,0.01123,-0.990051,0.098718,0.462901,-0.054656,59,280,582,6240
1644183055.60729,-0.00769,0.010254,-0.992676,0.205588,0.340763,-0.069924,48,271,585,6176
1644183055.655693,-0.007324,0.012695,-0.992249,0.251389,0.417099,-0.207328,49,277,584,6240
1644183055.704721,-0.008179,0.013184,-0.990845,0.205588,0.356031,-0.069924,42,270,584,6176
1644183055.754782,-0.009949,0.009033,-0.991577,0.129252,0.356031,-0.054656,47,268,575,6256
1644183055.804946,-0.006958,0.011353,-0.99054,0.266656,0.401832,0.143817,39,279,571,6176
1644183055.85008,-0.009949,0.008606,-0.988892,0.434595,0.417099,-0.039389,51,281,569,6224
1644183055.946208,-0.007019,0.010193,-0.994751,0.190321,0.417099,-0.054656,53,279,587,6224
1644183055.994587,-0.009399,0.010803,-0.994019,0.052916,0.401832,-0.130992,57,275,591,6240
1644183056.042904,-0.008179,0.009094,-0.992188,0.175053,0.508702,-0.008855,58,269,599,6160
1644183056.09131,-0.00824,0.012024,-0.990723,0.220855,0.462901,-0.054656,52,270,582,6160
1644183056.139623,-0.009705,0.009583,-0.990845,0.220855,0.493435,-0.207328,47,268,589,6192
1644183056.188015,-0.010742,0.01001,-0.993591,0.08345,0.325496,-0.069924,53,276,587,6240
1644183056.236403,-0.008362,0.008667,-0.989746,0.129252,0.508702,-0.130992,46,283,585,6192
1644183056.284798,-0.008728,0.012085,-0.991516,0.159786,0.386565,-0.069924,51,283,578,6224
1644183056.333204,-0.010132,0.009644,-0.993835,0.175053,0.356031,-0.161527,42,277,586,6128
1644183056.381639,-0.008667,0.009033,-0.991089,0.236122,0.447634,-0.222595,57,273,586,6224
1644183056.42997,-0.007507,0.011292,-0.99176,0.236122,0.401832,-0.100458,52,268,586,6176
1644183056.478334,-0.008362,0.011475,-0.991638,0.297191,0.340763,-0.085191,53,279,585,6080
1644183056.526766,-0.008667,0.010071,-0.990906,0.281924,0.386565,-0.008855,53,276,592,6128
1644183056.575193,-0.008789,0.011414,-0.990845,0.35826,0.340763,-0.085191,47,273,596,6176
1644183056.62355,-0.010132,0.010498,-0.989685,0.281924,0.462901,-0.085191,52,273,579,6176
1644183056.672945,-0.008728,0.011902,-0.993774,0.373527,0.417099,-0.024122,47,280,589,6176
1644183056.723102,-0.009949,0.011353,-0.990479,0.159786,0.554504,0.006412,46,279,580,6224
1644183056.773725,-0.008667,0.009583,-0.992981,0.281924,0.325496,0.052214,52,270,584,6128
1644183056.81807,-0.007812,0.009155,-0.995056,0.205588,0.523969,-0.039389,43,266,583,6224
1644183056.913984,-0.009888,0.007629,-0.992676,0.236122,0.356031,-0.161527,42,270,584,6128
1644183056.962433,-0.008362,0.009644,-0.992615,0.08345,0.508702,-0.14626,46,286,585,6224
1644183057.010709,-0.007141,0.012024,-0.990112,0.327725,0.417099,-0.176794,51,274,580,6176
1644183057.06411,-0.011719,0.010254,-0.993469,0.129252,0.539237,-0.069924,53,271,590,6160
1644183057.1075,-0.008972,0.006836,-0.991821,0.220855,0.447634,-0.161527,48,274,587,6176
1644183057.155917,-0.00885,0.009277,-0.993347,0.419328,0.417099,0.036947,54,270,584,6160
1644183057.204305,-0.010071,0.011475,-0.991333,0.251389,0.340763,0.021679,43,274,585,6192
1644183057.252678,-0.009277,0.009277,-0.990967,0.251389,0.371298,-0.161527,58,281,585,6176
1644183057.301089,-0.009155,0.007629,-0.991211,0.266656,0.356031,-0.024122,45,285,577,6224
1644183057.349491,-0.006531,0.012085,-0.991333,0.205588,0.233893,-0.176794,39,274,585,6160
1644183057.397866,-0.008789,0.009399,-0.992126,0.190321,0.386565,-0.039389,51,266,580,6160
1644183057.446264,-0.009155,0.007812,-0.992981,0.312458,0.508702,-0.054656,48,269,580,6240
1644183057.494728,-0.006653,0.010498,-0.994263,0.205588,0.462901,-0.008855,43,276,585,6128
1644183057.54306,-0.008301,0.008484,-0.990417,0.190321,0.493435,-0.207328,38,277,593,6160
1644183057.591444,-0.006836,0.01062,-0.992615,0.190321,0.417099,-0.100458,58,281,592,6192
1644183057.639836,-0.009033,0.010376,-0.990417,0.022382,0.401832,0.021679,47,282,582,6176
1644183057.688225,-0.006165,0.00824,-0.992432,0.159786,0.233893,0.036947,51,269,585,6160
1644183057.736957,-0.008911,0.013062,-0.99115,0.175053,0.462901,-0.008855,47,260,579,6160
1644183057.785124,-0.005859,0.010864,-0.991211,0.190321,0.432366,-0.039389,43,279,583,6176
1644183057.834949,-0.007019,0.008911,-0.992554,0.266656,0.340763,-0.14626,49,290,579,6160
1644183057.885643,-0.007324,0.008423,-0.989929,0.205588,0.264427,-0.14626,53,276,573,6256
1644183057.935409,-0.009094,0.010498,-0.993896,0.113985,0.356031,-0.024122,39,281,590,6192
1644183057.979969,-0.009583,0.009888,-0.99115,0.236122,0.493435,0.006412,53,274,573,6160
1644183058.075521,-0.009949,0.013062,-0.99115,0.388794,0.554504,-0.222595,52,270,586,6224
1644183058.123706,-0.009399,0.006226,-0.992065,0.297191,0.386565,-0.115725,52,270,582,6224
1644183058.172392,-0.009338,0.010986,-0.992004,0.113985,0.401832,-0.237863,55,276,583,6112
1644183058.220504,-0.007385,0.009949,-0.990967,0.236122,0.264427,-0.14626,43,271,587,6192
1644183058.268912,-0.008484,0.012146,-0.991821,0.251389,0.325496,-0.130992,48,276,585,6192
1644183058.317282,-0.009216,0.008484,-0.991516,0.175053,0.462901,-0.237863,54,280,579,6176
1644183058.365687,-0.010498,0.006836,-0.992981,0.144519,0.462901,-0.008855,47,277,582,6128
1644183058.414081,-0.00769,0.00946,-0.990784,0.297191,0.386565,-0.024122,43,274,590,6160
1644183058.462502,-0.007568,0.006897,-0.991943,0.022382,0.493435,-0.237863,53,286,585,6192
1644183058.51087,-0.009583,0.011353,-0.992188,0.281924,0.356031,-0.085191,45,277,586,6160
1644183058.55927,-0.011597,0.007812,-0.992126,0.159786,0.493435,-0.054656,48,274,573,6256
1644183058.607657,-0.00824,0.010742,-0.988708,0.236122,0.310229,-0.100458,43,291,580,6224
1644183058.65605,-0.008484,0.011475,-0.989685,0.266656,0.432366,0.052214,52,275,589,6160
1644183058.704437,-0.007507,0.008789,-0.990784,0.419328,0.401832,-0.130992,54,275,586,6240
1644183058.752855,-0.009766,0.01123,-0.991577,0.281924,0.294962,-0.085191,51,269,590,6240
1644183058.801257,-0.008423,0.009949,-0.990723,0.236122,0.447634,0.143817,45,275,586,6192
1644183058.84965,-0.009949,0.007202,-0.990417,0.190321,0.356031,-0.176794,43,276,587,6192
1644183058.898035,-0.009033,0.011414,-0.992371,0.312458,0.371298,-0.085191,42,270,591,6176
1644183058.946461,-0.007507,0.010498,-0.990845,0.205588,0.417099,-0.100458,45,275,596,6224
1644183058.996302,-0.008667,0.006897,-0.991821,0.08345,0.294962,-0.069924,43,271,576,6192
1644183059.059597,-0.009644,0.010803,-0.991516,0.220855,0.340763,-0.14626,49,280,589,6240
1644183059.099363,-0.00946,0.007202,-0.99054,0.098718,0.386565,-0.237863,45,273,586,6192
1644183059.140846,-0.012024,0.01062,-0.992493,0.190321,0.539237,-0.176794,53,279,583,6160
1644183059.23675,-0.009338,0.010986,-0.99115,0.098718,0.508702,0.021679,60,283,580,6176
1644183059.285371,-0.00769,0.01123,-0.992737,0.35826,0.386565,-0.130992,45,270,586,6176
1644183059.333546,-0.008606,0.009155,-0.990295,0.190321,0.279695,-0.115725,46,269,585,6176
1644183059.381931,-0.004517,0.011169,-0.991333,0.297191,0.356031,-0.100458,48,276,578,6192
1644183059.430325,-0.00824,0.010742,-0.988098,0.007115,0.371298,-0.069924,59,287,582,6160
1644183059.478731,-0.009399,0.010864,-0.991272,0.297191,0.356031,-0.069924,48,274,578,6224
1644183059.527113,-0.008911,0.010315,-0.991333,0.266656,0.462901,-0.100458,48,276,578,6128
1644183059.575511,-0.008484,0.009338,-0.99054,0.205588,0.447634,0.021679,52,280,586,6256
1644183059.623906,-0.008728,0.013,-0.992432,0.220855,0.356031,-0.130992,58,274,585,6240
1644183059.672322,-0.009277,0.008972,-0.993835,0.08345,0.539237,-0.176794,46,274,587,6128
1644183059.720695,-0.010071,0.010559,-0.98877,0.129252,0.356031,0.036947,51,271,583,6192
1644183059.769061,-0.006958,0.008606,-0.992859,0.113985,0.447634,-0.039389,47,273,582,6240
1644183059.817527,-0.00885,0.007202,-0.989929,0.281924,0.325496,-0.130992,51,274,587,6176
1644183059.865902,-0.007629,0.009888,-0.992981,0.220855,0.478168,-0.14626,41,274,587,6176
1644183059.914266,-0.007935,0.011414,-0.992065,0.113985,0.447634,-0.115725,43,276,592,6160
1644183059.962723,-0.010193,0.008545,-0.990845,0.144519,0.447634,-0.25313,52,285,591,6240
1644183060.01109,-0.00708,0.008789,-0.990356,0.144519,0.417099,-0.115725,48,276,590,6224
1644183060.072311,-0.009888,0.009521,-0.990967,0.205588,0.371298,-0.130992,66,273,586,6176
1644183060.11415,-0.012085,0.007568,-0.991455,0.35826,0.539237,0.006412,42,285,591,6224
1644183060.156802,-0.012756,0.010742,-0.991394,0.068183,0.447634,-0.115725,34,274,592,6224
1644183060.207431,-0.00824,0.013123,-0.990723,0.068183,0.279695,0.082748,38,273,584,6128
1644183060.257539,-0.00531,0.007568,-0.989685,0.113985,0.508702,0.036947,55,271,587,6176
1644183060.30253,-0.00647,0.012939,-0.990906,0.08345,0.294962,-0.176794,46,274,580,6160
1644183060.398166,-0.008423,0.011353,-0.990662,0.175053,0.462901,-0.207328,52,285,582,6224
1644183060.446565,-0.00769,0.012451,-0.991638,0.236122,0.356031,-0.176794,51,276,578,6192
1644183060.495228,-0.009399,0.006714,-0.990784,0.236122,0.417099,-0.100458,54,277,593,6176
1644183060.543366,-0.008911,0.009888,-0.992676,0.327725,0.401832,-0.161527,54,270,582,6192
1644183060.591767,-0.00531,0.011902,-0.989136,0.098718,0.493435,-0.054656,40,277,584,6176
1644183060.640129,-0.009888,0.009705,-0.990295,0.08345,0.462901,-0.054656,47,273,591,6224
1644183060.688545,-0.010681,0.01001,-0.993591,0.175053,0.447634,-0.054656,48,271,580,6256
1644183060.736928,-0.009216,0.010315,-0.993958,0.220855,0.523969,-0.054656,55,271,580,6176
1644183060.785326,-0.007751,0.012329,-0.992615,0.236122,0.279695,-0.130992,48,274,590,6160
1644183060.83378,-0.008057,0.009338,-0.992676,0.190321,0.417099,-0.100458,54,273,582,6176
1644183060.882252,-0.009338,0.009644,-0.992004,0.129252,0.478168,-0.192061,48,283,590,6176
1644183060.930554,-0.007385,0.010437,-0.991516,0.251389,0.478168,-0.115725,45,285,584,6224
1644183060.978961,-0.006836,0.010742,-0.992554,0.08345,0.218626,-0.069924,52,273,582,6224
1644183061.027345,-0.00824,0.007874,-0.99115,0.220855,0.554504,-0.054656,54,277,584,6240
1644183061.087757,-0.008179,0.011414,-0.992249,0.205588,0.325496,-0.069924,45,275,577,6224
1644183061.124098,-0.008362,0.012329,-0.990051,0.052916,0.478168,-0.161527,51,276,583,6128
1644183061.172518,-0.004211,0.010498,-0.990967,0.08345,0.478168,-0.069924,48,269,590,6224
1644183061.222406,-0.008728,0.009766,-0.992126,0.175053,0.401832,-0.085191,49,280,582,6176
1644183061.272687,-0.007019,0.009644,-0.991516,0.175053,0.401832,-0.14626,52,273,582,6080
1644183061.322928,-0.008484,0.008179,-0.992615,0.159786,0.401832,-0.069924,51,269,578,6192
1644183061.414474,-0.009766,0.009827,-0.990601,0.205588,0.478168,-0.130992,48,274,585,6128
1644183061.462843,-0.006348,0.006287,-0.990662,0.327725,0.401832,-0.25313,45,273,586,6240
1644183061.511212,-0.007568,0.009399,-0.989258,0.190321,0.508702,-0.115725,43,281,573,6128
1644183061.559608,-0.006592,0.009277,-0.992249,0.35826,0.294962,-0.176794,46,279,590,6176
1644183061.608004,-0.006592,0.009827,-0.99408,0.312458,0.356031,-0.039389,57,275,572,6160
1644183061.656397,-0.008972,0.01123,-0.992615,0.373527,0.310229,-0.100458,49,270,579,6224
1644183061.705051,-0.009827,0.011536,-0.993652,0.190321,0.523969,-0.100458,59,270,586,6192
1644183061.753174,-0.008789,0.00946,-0.989319,0.037649,0.401832,0.067481,47,277,593,6176
1644183061.801582,-0.00824,0.009644,-0.989441,0.220855,0.462901,0.052214,33,277,584,6176
1644183061.849988,-0.00885,0.013306,-0.992249,0.159786,0.432366,-0.130992,48,271,580,6128
1644183061.898413,-0.009521,0.009521,-0.993408,0.404061,0.447634,-0.024122,49,273,577,6240
1644183061.946775,-0.007446,0.009277,-0.991211,0.037649,0.539237,0.143817,46,276,576,6160
1644183061.995274,-0.010437,0.010376,-0.990723,0.190321,0.462901,-0.130992,43,279,592,6192
1644183062.043592,-0.009583,0.009216,-0.991638,0.098718,0.356031,-0.283664,49,275,589,6192
1644183062.09546,-0.00885,0.011292,-0.992676,0.144519,0.493435,-0.039389,42,270,579,6192
1644183062.140306,-0.008728,0.009888,-0.995178,0.220855,0.340763,-0.14626,53,269,585,6192
1644183062.188725,-0.009094,0.010803,-0.991516,0.404061,0.279695,-0.069924,42,277,577,6224
1644183062.237121,-0.008118,0.008057,-0.991333,0.190321,0.356031,-0.069924,49,280,591,6192
1644183062.28554,-0.009766,0.009521,-0.992371,0.220855,0.661374,-0.115725,49,275,579,6192
1644183062.335722,-0.010315,0.00769,-0.99054,0.266656,0.371298,-0.161527,53,276,578,6160
1644183062.386055,-0.006836,0.012207,-0.991028,0.220855,0.279695,-0.039389,42,277,586,6224
1644183062.431089,-0.007141,0.013123,-0.992249,0.220855,0.401832,-0.085191,45,268,579,6192
1644183062.527471,-0.009644,0.009644,-0.989502,0.220855,0.569771,-0.024122,48,288,580,6176
1644183062.575847,-0.006104,0.009827,-0.990112,0.312458,0.340763,-0.100458,48,279,576,6160
1644183062.624261,-0.009216,0.010254,-0.991699,0.297191,0.264427,0.036947,41,276,578,6192
1644183062.672661,-0.009216,0.011719,-0.992676,0.297191,0.554504,-0.100458,45,273,584,6192
1644183062.721016,-0.007629,0.008423,-0.993469,0.159786,0.493435,-0.14626,32,279,569,6176
1644183062.769422,-0.009155,0.01062,-0.992798,0.312458,0.508702,-0.054656,42,270,584,6160
1644183062.817816,-0.008179,0.008667,-0.991455,0.220855,0.432366,-0.100458,45,275,582,6224
1644183062.866259,-0.007263,0.009033,-0.99231,0.144519,0.172824,-0.161527,64,270,579,6128
1644183062.914732,-0.007202,0.013733,-0.988586,0.236122,0.371298,0.098015,52,277,586,6176
1644183062.963076,-0.006226,0.009644,-0.992676,0.129252,0.554504,-0.039389,51,283,573,6112
1644183063.011437,-0.007141,0.007629,-0.991699,0.236122,0.462901,-0.039389,51,283,578,6160
1644183063.067456,-0.008057,0.01123,-0.991516,0.251389,0.462901,-0.024122,40,270,575,6176
1644183063.108203,-0.007324,0.010376,-0.991516,0.327725,0.24916,-0.130992,55,271,594,6240
1644183063.156594,-0.007812,0.011169,-0.991211,0.236122,0.508702,-0.283664,46,266,587,6160
1644183063.205023,-0.004028,0.007751,-0.989197,0.220855,0.401832,-0.192061,55,269,592,6192
1644183063.253341,-0.010742,0.011475,-0.991577,0.297191,0.432366,-0.069924,54,273,586,6240
1644183063.30175,-0.009155,0.01178,-0.993958,0.205588,0.493435,-0.222595,51,274,587,6160
1644183063.350154,-0.009094,0.010742,-0.991699,0.281924,0.478168,-0.024122,42,277,586,6224
1644183063.398542,-0.009399,0.012146,-0.993103,0.159786,0.325496,-0.100458,42,273,582,6192
1644183063.447343,-0.007202,0.012085,-0.992615,0.251389,0.447634,0.006412,48,264,578,6224
1644183063.498183,-0.009521,0.011536,-0.991516,0.205588,0.417099,-0.115725,53,271,592,6176
1644183063.547813,-0.006042,0.011047,-0.990173,0.236122,0.478168,-0.115725,49,287,589,6288
1644183063.592811,-0.007324,0.010071,-0.992432,0.281924,0.356031,-0.207328,46,283,590,6192
1644183063.688916,-0.008423,0.00946,-0.990051,0.159786,0.340763,-0.054656,51,274,580,6192
1644183063.737268,-0.007935,0.010071,-0.990234,0.266656,0.493435,-0.085191,49,273,584,6176
1644183063.785656,-0.005127,0.009277,-0.990417,0.129252,0.386565,-0.222595,43,279,580,6176
1644183063.834095,-0.01062,0.01355,-0.991211,0.236122,0.386565,-0.14626,43,274,578,6224
1644183063.882505,-0.007446,0.007019,-0.991089,0.404061,0.523969,-0.100458,52,268,575,6224
1644183063.930909,-0.01123,0.009888,-0.992615,0.297191,0.340763,-0.039389,51,259,590,6224
1644183063.979301,-0.009155,0.011841,-0.99054,0.190321,0.310229,-0.100458,51,276,578,6240
1644183064.027697,-0.008179,0.009155,-0.992981,0.266656,0.462901,-0.115725,45,285,582,6224
1644183064.084831,-0.009277,0.010803,-0.993286,0.373527,0.294962,-0.069924,51,269,599,6224
1644183064.12451,-0.011719,0.008728,-0.990723,0.312458,0.401832,-0.085191,46,269,580,6224
1644183064.172825,-0.007751,0.009827,-0.990784,0.190321,0.417099,-0.085191,49,277,584,6160
1644183064.221217,-0.006409,0.00946,-0.98877,0.205588,0.386565,-0.14626,52,285,579,6224
1644183064.269611,-0.010864,0.009338,-0.990784,0.327725,0.569771,-0.115725,47,270,586,6128
1644183064.317996,-0.008484,0.008789,-0.992493,0.312458,0.462901,-0.039389,48,276,580,6128
1644183064.366378,-0.007629,0.009399,-0.994385,0.251389,0.447634,-0.130992,54,270,598,6160
1644183064.414798,-0.010559,0.008118,-0.990601,0.220855,0.462901,0.021679,39,274,583,6176
1644183064.463192,-0.008179,0.009583,-0.992676,0.190321,0.340763,-0.161527,51,276,590,6192
1644183064.511759,-0.008789,0.010742,-0.991028,0.159786,0.432366,-0.176794,48,274,583,6192
1644183064.562246,-0.010376,0.008606,-0.992249,0.35826,0.294962,-0.14626,53,279,585,6128
1644183064.612371,-0.010681,0.00824,-0.991516,0.205588,0.279695,-0.130992,45,273,596,6160
1644183064.657496,-0.007935,0.006226,-0.993896,0.175053,0.447634,-0.054656,49,280,577,6192
1644183064.75353,-0.007629,0.011047,-0.989441,0.175053,0.447634,-0.085191,58,271,583,6224
1644183064.801919,-0.010559,0.007324,-0.990906,0.266656,0.401832,0.036947,54,270,579,6112
1644183064.850326,-0.009644,0.008301,-0.992004,0.220855,0.478168,-0.069924,59,277,584,6192
1644183064.898762,-0.008911,0.010803,-0.990906,0.281924,0.447634,-0.115725,49,277,575,6160
1644183064.947158,-0.008362,0.008118,-0.993652,0.205588,0.478168,-0.130992,48,279,587,6224
1644183064.995563,-0.008911,0.009521,-0.993347,0.129252,0.386565,-0.192061,57,268,586,6160
1644183065.043947,-0.008789,0.008972,-0.991638,0.113985,0.294962,-0.085191,55,274,580,6224
1644183065.09661,-0.008911,0.010498,-0.990845,0.449863,0.508702,-0.14626,47,275,586,6160
1644183065.140723,-0.012878,0.009583,-0.991821,0.312458,0.432366,-0.161527,45,275,579,6240
1644183065.189072,-0.009888,0.008484,-0.988403,0.205588,0.279695,-0.008855,48,279,590,6128
1644183065.237462,-0.007751,0.008484,-0.99176,0.190321,0.386565,-0.039389,58,281,587,6176
1644183065.285857,-0.009155,0.01062,-0.99469,0.297191,0.340763,0.006412,45,280,584,6192
1644183065.334263,-0.007507,0.008362,-0.993164,0.266656,0.508702,0.052214,54,277,584,6128
1644183065.382639,-0.010681,0.010315,-0.992065,0.159786,0.233893,-0.054656,51,276,585,6128
1644183065.431051,-0.00769,0.011475,-0.992126,0.297191,0.356031,-0.161527,57,275,593,6176
1644183065.479436,-0.00824,0.008118,-0.989258,0.113985,0.508702,-0.115725,43,279,578,6192
1644183065.527827,-0.009705,0.012085,-0.99231,0.281924,0.493435,-0.008855,46,276,578,6224
1644183065.576489,-0.009827,0.012146,-0.990784,0.129252,0.310229,-0.161527,42,270,579,6176
1644183065.62693,-0.009705,0.008728,-0.99115,0.190321,0.508702,-0.085191,33,282,589,6128
1644183065.677011,-0.006409,0.007507,-0.989807,0.052916,0.447634,0.052214,32,276,576,6224
1644183065.722192,-0.007263,0.009888,-0.988647,0.098718,0.554504,-0.008855,47,277,586,6176
1644183065.818177,-0.007935,0.010193,-0.990845,0.342992,0.279695,-0.161527,39,271,576,6224
1644183065.866559,-0.005188,0.009033,-0.991577,0.312458,0.508702,-0.100458,42,273,586,6192
1644183065.915067,-0.008362,0.009521,-0.992554,0.251389,0.371298,-0.039389,51,279,580,6160
1644183065.963419,-0.007141,0.007019,-0.993835,0.205588,0.325496,-0.161527,52,270,570,6192
1644183066.011804,-0.007996,0.007446,-0.989075,0.35826,0.325496,-0.176794,47,285,586,6176
1644183066.066936,-0.009521,0.009521,-0.991638,0.175053,0.447634,0.006412,52,263,586,6240
1644183066.108563,-0.007629,0.008484,-0.990234,0.159786,0.432366,0.036947,43,276,583,6160
1644183066.156961,-0.00946,0.010315,-0.99176,0.175053,0.432366,-0.054656,46,283,578,6128
1644183066.205363,-0.005676,0.009583,-0.994934,0.281924,0.401832,-0.069924,49,275,589,6176
1644183066.25377,-0.007935,0.010864,-0.994507,0.480397,0.432366,-0.054656,47,285,586,6176
1644183066.302238,-0.010864,0.010864,-0.991516,0.08345,0.356031,-0.130992,51,283,587,6240
1644183066.350546,-0.010803,0.008789,-0.992554,0.236122,0.417099,-0.283664,49,280,582,6128
1644183066.398946,-0.005432,0.007874,-0.99353,0.251389,0.417099,-0.100458,42,277,577,6112
1644183066.44734,-0.010254,0.01062,-0.992981,0.266656,0.432366,-0.008855,40,273,584,6160
1644183066.495741,-0.006592,0.010376,-0.990417,0.159786,0.386565,-0.085191,45,282,586,6128
1644183066.544106,-0.007996,0.008789,-0.99353,0.342992,0.386565,-0.192061,42,277,589,6128
1644183066.592539,-0.007812,0.007751,-0.991577,0.281924,0.432366,-0.039389,47,268,582,6224
1644183066.641089,-0.008057,0.012695,-0.991577,0.297191,0.371298,-0.161527,42,285,589,6160
1644183066.689304,-0.006042,0.009888,-0.990356,0.220855,0.432366,-0.085191,53,279,580,6160
1644183066.739092,-0.005615,0.009338,-0.993469,0.220855,0.371298,-0.024122,53,279,585,6192
1644183066.789669,-0.011108,0.010071,-0.992615,0.144519,0.462901,-0.161527,43,279,585,6128
1644183066.839627,-0.008606,0.009521,-0.990845,0.312458,0.371298,-0.115725,39,274,587,6224
1644183066.884143,-0.008972,0.013672,-0.991699,0.220855,0.340763,-0.130992,51,276,594,6192
1644183066.979651,-0.010254,0.00824,-0.990051,0.312458,0.417099,-0.039389,43,274,580,6240
1644183067.028049,-0.008423,0.009827,-0.992004,0.281924,0.356031,-0.085191,43,271,583,6192
1644183067.076514,-0.010864,0.013733,-0.991882,0.190321,0.417099,-0.130992,57,270,596,6160
1644183067.1248,-0.007202,0.011108,-0.992554,0.190321,0.417099,-0.268397,51,283,576,6224
1644183067.173193,-0.009644,0.010071,-0.992554,0.281924,0.508702,-0.268397,48,274,583,6240
1644183067.221589,-0.007629,0.008057,-0.994446,0.251389,0.325496,-0.100458,33,282,582,6192
1644183067.269955,-0.009583,0.007202,-0.991028,0.190321,0.401832,-0.054656,61,280,577,6224
